condition	subject	session	cycle	trial	test	stimulus	category	response	dangerous	nutricious	correct	cumulative	RT1	1	1	1	1	0	11001.jpg	1	3	0	0	0	-100	134751	1	1	1	2	0	00000.jpg	1	1	0	0	1	0	161531	1	1	1	3	0	10101.jpg	3	3	1	0	1	100	75151	1	1	1	4	0	01011.jpg	2	2	0	1	1	200	37681	1	1	1	5	0	11011.jpg	2	4	0	1	0	100	73771	1	1	1	6	0	00011.jpg	2	2	0	1	1	200	97471	1	1	1	7	0	11111.jpg	4	2	1	1	0	100	127581	1	1	1	8	0	10000.jpg	1	3	0	0	0	0	256461	1	1	1	9	0	01001.jpg	1	1	0	0	1	100	31091	1	1	1	10	0	00000.jpg	1	1	0	0	1	200	109061	1	1	1	11	0	11011.jpg	2	2	0	1	1	300	302381	1	1	1	12	0	11111.jpg	4	4	1	1	1	400	64211	1	1	1	13	0	10011.jpg	2	2	0	1	1	500	40291	1	1	1	14	0	00111.jpg	2	2	0	1	1	600	526191	1	1	1	15	0	10000.jpg	1	1	0	0	1	700	80041	1	1	1	16	0	00110.jpg	2	2	0	1	1	800	89481	1	1	1	17	0	01001.jpg	1	1	0	0	1	900	343341	1	1	1	18	0	10101.jpg	3	3	1	0	1	1000	86731	1	1	1	19	0	01111.jpg	2	2	0	1	1	1100	228331	1	1	1	20	0	10111.jpg	4	4	1	1	1	1200	59431	1	1	1	21	0	01011.jpg	2	2	0	1	1	1300	103051	1	1	1	22	0	00001.jpg	1	1	0	0	1	1400	90301	1	1	1	23	0	01111.jpg	2	2	0	1	1	1500	111101	1	1	1	24	0	01101.jpg	1	1	0	0	1	1600	221771	1	1	1	25	0	00010.jpg	2	2	0	1	1	1700	163321	1	1	1	26	0	10100.jpg	3	3	1	0	1	1800	53191	1	1	1	27	0	11101.jpg	3	3	1	0	1	1900	67231	1	1	1	28	0	10010.jpg	2	4	0	1	0	1800	127681	1	1	1	29	0	10110.jpg	4	4	1	1	1	1900	72591	1	1	1	30	0	00101.jpg	1	3	0	0	0	1800	448401	1	1	1	31	0	10001.jpg	1	3	0	0	0	1700	134141	1	1	1	32	0	10010.jpg	2	2	0	1	1	1800	428771	1	1	2	33	0	01010.jpg	2	2	0	1	1	1900	105391	1	1	2	34	0	01110.jpg	2	2	0	1	1	2000	55671	1	1	2	35	0	00101.jpg	1	1	0	0	1	2100	469991	1	1	2	36	0	11010.jpg	2	2	0	1	1	2200	373121	1	1	2	37	0	00100.jpg	1	1	0	0	1	2300	150051	1	1	2	38	0	11101.jpg	3	3	1	0	1	2400	152141	1	1	2	39	0	00000.jpg	1	1	0	0	1	2500	218131	1	1	2	40	0	00100.jpg	1	1	0	0	1	2600	254381	1	1	2	41	0	10010.jpg	2	4	0	1	0	2500	145411	1	1	2	42	0	00111.jpg	2	4	0	1	0	2400	77221	1	1	2	43	0	00101.jpg	1	1	0	0	1	2500	383811	1	1	2	44	0	10100.jpg	3	1	1	0	0	2400	314551	1	1	2	45	0	10100.jpg	3	3	1	0	1	2500	64051	1	1	2	46	0	01100.jpg	1	1	0	0	1	2600	368771	1	1	2	47	0	01100.jpg	1	1	0	0	1	2700	56991	1	1	2	48	0	10111.jpg	4	4	1	1	1	2800	98801	1	1	2	49	0	11010.jpg	2	2	0	1	1	2900	758301	1	1	2	50	0	11110.jpg	4	4	1	1	1	3000	319641	1	1	2	51	0	01000.jpg	1	1	0	0	1	3100	329321	1	1	2	52	0	00001.jpg	1	1	0	0	1	3200	40971	1	1	2	53	0	00011.jpg	2	2	0	1	1	3300	103101	1	1	2	54	0	01000.jpg	1	1	0	0	1	3400	36981	1	1	2	55	0	10101.jpg	3	4	1	0	0	3300	238401	1	1	2	56	0	11011.jpg	2	4	0	1	0	3200	306311	1	1	2	57	0	01010.jpg	2	2	0	1	1	3300	171571	1	1	2	58	0	01011.jpg	2	2	0	1	1	3400	451041	1	1	2	59	0	10110.jpg	4	4	1	1	1	3500	75641	1	1	2	60	0	11110.jpg	4	4	1	1	1	3600	95421	1	1	2	61	0	11010.jpg	2	4	0	1	0	3500	224721	1	1	2	62	0	10001.jpg	1	3	0	0	0	3400	540691	1	1	2	63	0	00110.jpg	2	2	0	1	1	3500	606591	1	1	2	64	0	01111.jpg	2	2	0	1	1	3600	176571	1	1	3	65	0	10011.jpg	2	2	0	1	1	3700	208141	1	1	3	66	0	01010.jpg	2	2	0	1	1	3800	184951	1	1	3	67	0	11100.jpg	3	3	1	0	1	3900	124031	1	1	3	68	0	10111.jpg	4	4	1	1	1	4000	49961	1	1	3	69	0	01000.jpg	1	1	0	0	1	4100	42041	1	1	3	70	0	01110.jpg	2	2	0	1	1	4200	49411	1	1	3	71	0	01110.jpg	2	2	0	1	1	4300	33361	1	1	3	72	0	11000.jpg	1	1	0	0	1	4400	57231	1	1	3	73	0	00010.jpg	2	2	0	1	1	4500	53191	1	1	3	74	0	11110.jpg	4	4	1	1	1	4600	54351	1	1	3	75	0	01001.jpg	1	1	0	0	1	4700	30341	1	1	3	76	0	00001.jpg	1	1	0	0	1	4800	53301	1	1	3	77	0	01101.jpg	1	1	0	0	1	4900	28291	1	1	3	78	0	10001.jpg	1	1	0	0	1	5000	79571	1	1	3	79	0	00100.jpg	1	1	0	0	1	5100	60781	1	1	3	80	0	11100.jpg	3	3	1	0	1	5200	50301	1	1	3	81	0	00111.jpg	2	2	0	1	1	5300	50371	1	1	3	82	0	00011.jpg	2	2	0	1	1	5400	34281	1	1	3	83	0	11101.jpg	3	3	1	0	1	5500	35631	1	1	3	84	0	11000.jpg	1	1	0	0	1	5600	37821	1	1	3	85	0	01100.jpg	1	1	0	0	1	5700	24651	1	1	3	86	0	10110.jpg	4	4	1	1	1	5800	34231	1	1	3	87	0	10000.jpg	1	1	0	0	1	5900	47501	1	1	3	88	0	00110.jpg	2	2	0	1	1	6000	34481	1	1	3	89	0	01101.jpg	1	1	0	0	1	6100	43201	1	1	3	90	0	10011.jpg	2	2	0	1	1	6200	33801	1	1	3	91	0	11000.jpg	1	1	0	0	1	6300	29011	1	1	3	92	0	11100.jpg	3	3	1	0	1	6400	28091	1	1	3	93	0	00010.jpg	2	2	0	1	1	6500	41541	1	1	3	94	0	11001.jpg	1	1	0	0	1	6600	35421	1	1	3	95	0	11001.jpg	1	1	0	0	1	6700	30971	1	1	3	96	0	11111.jpg	4	4	1	1	1	6800	47901	1	1	0	97	1	11110pt.jpg	4	3	1	1	0	6800	86671	1	1	0	98	1	00101pt.jpg	4	2	1	1	0	6800	131031	1	1	0	99	1	00111pt.jpg	4	1	1	1	0	6800	456871	1	1	0	100	1	11111pt.jpg	4	1	1	1	0	6800	573371	1	1	0	101	1	11011pt.jpg	4	1	1	1	0	6800	761371	1	1	0	102	1	01000pt.jpg	4	2	1	1	0	6800	778331	1	1	0	103	1	01010pt.jpg	4	2	1	1	1	6800	838861	1	1	0	104	1	10101pt.jpg	4	3	1	1	1	6800	724231	1	2	1	1	0	01010.jpg	3	2	1	0	0	-100	235711	1	2	1	2	0	00110.jpg	3	2	1	0	0	-200	510621	1	2	1	3	0	10110.jpg	4	4	1	1	1	-100	163881	1	2	1	4	0	11100.jpg	2	1	0	1	0	-200	132201	1	2	1	5	0	00010.jpg	3	3	1	0	1	-100	295321	1	2	1	6	0	11000.jpg	2	2	0	1	1	0	341591	1	2	1	7	0	11001.jpg	2	2	0	1	1	100	155621	1	2	1	8	0	11001.jpg	2	2	0	1	1	200	53321	1	2	1	9	0	01111.jpg	4	1	1	1	0	100	203831	1	2	1	10	0	10011.jpg	3	2	1	0	0	0	1082461	1	2	1	11	0	01101.jpg	2	3	0	1	0	-100	767231	1	2	1	12	0	10110.jpg	4	2	1	1	0	-200	1101351	1	2	1	13	0	01000.jpg	1	1	0	0	1	-100	107281	1	2	1	14	0	11010.jpg	4	2	1	1	0	-200	128451	1	2	1	15	0	00110.jpg	3	2	1	0	0	-300	697851	1	2	1	16	0	11011.jpg	4	2	1	1	0	-400	462101	1	2	1	17	0	11101.jpg	2	2	0	1	1	-300	168251	1	2	1	18	0	01011.jpg	3	3	1	0	1	-200	48791	1	2	1	19	0	01011.jpg	3	3	1	0	1	-100	153021	1	2	1	20	0	00001.jpg	1	1	0	0	1	0	124751	1	2	1	21	0	00101.jpg	1	1	0	0	1	100	224971	1	2	1	22	0	00011.jpg	3	3	1	0	1	200	32381	1	2	1	23	0	01000.jpg	1	1	0	0	1	300	22221	1	2	1	24	0	10111.jpg	4	4	1	1	1	400	30381	1	2	1	25	0	00110.jpg	3	3	1	0	1	500	43641	1	2	1	26	0	00100.jpg	1	1	0	0	1	600	59101	1	2	1	27	0	10010.jpg	3	4	1	0	0	500	71641	1	2	1	28	0	10000.jpg	1	2	0	0	0	400	797011	1	2	1	29	0	11010.jpg	4	4	1	1	1	500	89371	1	2	1	30	0	10100.jpg	2	1	0	1	0	400	86911	1	2	1	31	0	11011.jpg	4	4	1	1	1	500	239611	1	2	1	32	0	11110.jpg	4	4	1	1	1	600	510091	1	2	2	33	0	00010.jpg	3	3	1	0	1	700	124651	1	2	2	34	0	00000.jpg	1	1	0	0	1	800	44951	1	2	2	35	0	10011.jpg	3	3	1	0	1	900	94851	1	2	2	36	0	10101.jpg	2	1	0	1	0	800	300191	1	2	2	37	0	00100.jpg	1	1	0	0	1	900	330751	1	2	2	38	0	11110.jpg	4	4	1	1	1	1000	88571	1	2	2	39	0	10111.jpg	4	4	1	1	1	1100	288291	1	2	2	40	0	01010.jpg	3	3	1	0	1	1200	96361	1	2	2	41	0	01110.jpg	4	3	1	1	0	1100	60521	1	2	2	42	0	11100.jpg	2	2	0	1	1	1200	422801	1	2	2	43	0	11000.jpg	2	2	0	1	1	1300	84301	1	2	2	44	0	00101.jpg	1	1	0	0	1	1400	579661	1	2	2	45	0	01111.jpg	4	3	1	1	0	1300	31431	1	2	2	46	0	11000.jpg	2	2	0	1	1	1400	72491	1	2	2	47	0	10000.jpg	1	1	0	0	1	1500	76711	1	2	2	48	0	11111.jpg	4	4	1	1	1	1600	48141	1	2	2	49	0	11010.jpg	4	4	1	1	1	1700	41881	1	2	2	50	0	01100.jpg	2	2	0	1	1	1800	59171	1	2	2	51	0	00011.jpg	3	3	1	0	1	1900	37841	1	2	2	52	0	11111.jpg	4	4	1	1	1	2000	39141	1	2	2	53	0	01101.jpg	2	2	0	1	1	2100	33821	1	2	2	54	0	11110.jpg	4	4	1	1	1	2200	21261	1	2	2	55	0	00111.jpg	3	3	1	0	1	2300	36661	1	2	2	56	0	10101.jpg	2	2	0	1	1	2400	30321	1	2	2	57	0	00010.jpg	3	3	1	0	1	2500	24791	1	2	2	58	0	10100.jpg	2	2	0	1	1	2600	19421	1	2	2	59	0	01001.jpg	1	1	0	0	1	2700	26091	1	2	2	60	0	00100.jpg	1	1	0	0	1	2800	21371	1	2	2	61	0	01001.jpg	1	1	0	0	1	2900	14931	1	2	2	62	0	11101.jpg	2	2	0	1	1	3000	33771	1	2	2	63	0	01000.jpg	1	1	0	0	1	3100	22591	1	2	2	64	0	11111.jpg	4	4	1	1	1	3200	28661	1	2	3	65	0	10001.jpg	1	1	0	0	1	3300	45191	1	2	3	66	0	00001.jpg	1	1	0	0	1	3400	20591	1	2	3	67	0	01101.jpg	2	2	0	1	1	3500	28581	1	2	3	68	0	10001.jpg	1	1	0	0	1	3600	28961	1	2	3	69	0	10000.jpg	1	1	0	0	1	3700	18221	1	2	3	70	0	10011.jpg	3	3	1	0	1	3800	27021	1	2	3	71	0	01010.jpg	3	3	1	0	1	3900	38751	1	2	3	72	0	00111.jpg	3	3	1	0	1	4000	25451	1	2	3	73	0	10010.jpg	3	3	1	0	1	4100	23891	1	2	3	74	0	10101.jpg	2	2	0	1	1	4200	35271	1	2	3	75	0	01100.jpg	2	2	0	1	1	4300	20101	1	2	3	76	0	01110.jpg	4	4	1	1	1	4400	61391	1	2	3	77	0	00101.jpg	1	1	0	0	1	4500	27241	1	2	3	78	0	11101.jpg	2	2	0	1	1	4600	44491	1	2	3	79	0	11011.jpg	4	4	1	1	1	4700	26151	1	2	3	80	0	11001.jpg	2	2	0	1	1	4800	19341	1	2	3	81	0	10100.jpg	2	2	0	1	1	4900	32181	1	2	3	82	0	01011.jpg	3	3	1	0	1	5000	28011	1	2	3	83	0	01100.jpg	2	2	0	1	1	5100	24351	1	2	3	84	0	01110.jpg	4	4	1	1	1	5200	28101	1	2	3	85	0	00111.jpg	3	3	1	0	1	5300	28951	1	2	3	86	0	01001.jpg	1	1	0	0	1	5400	32061	1	2	3	87	0	10110.jpg	4	4	1	1	1	5500	31811	1	2	3	88	0	00000.jpg	1	1	0	0	1	5600	32941	1	2	3	89	0	00000.jpg	1	1	0	0	1	5700	17941	1	2	3	90	0	00001.jpg	1	1	0	0	1	5800	13961	1	2	3	91	0	10010.jpg	3	3	1	0	1	5900	44141	1	2	3	92	0	00011.jpg	3	3	1	0	1	6000	18211	1	2	3	93	0	10001.jpg	1	1	0	0	1	6100	42551	1	2	3	94	0	10111.jpg	4	4	1	1	1	6200	43821	1	2	3	95	0	01111.jpg	4	4	1	1	1	6300	51741	1	2	3	96	0	11100.jpg	2	2	0	1	1	6400	56151	1	2	0	97	1	10101pt.jpg	2	2	0	1	1	6400	56151	1	2	0	98	1	11110pt.jpg	2	2	0	1	1	6400	56151	1	2	0	99	1	11011pt.jpg	2	2	0	1	1	6400	56151	1	2	0	100	1	01000pt.jpg	2	2	0	1	1	6400	56151	1	2	0	101	1	11111pt.jpg	2	2	0	1	1	6400	56151	1	2	0	102	1	00101pt.jpg	2	2	0	1	1	6400	56151	1	2	0	103	1	01010pt.jpg	2	2	0	1	1	6400	56151	1	2	0	104	1	00111pt.jpg	2	2	0	1	1	6400	56151	1	3	1	1	0	01101.jpg	2	1	0	1	0	-100	337371	1	3	1	2	0	10100.jpg	1	3	0	0	0	-200	131801	1	3	1	3	0	10100.jpg	1	1	0	0	1	-100	41421	1	3	1	4	0	00110.jpg	1	2	0	0	0	-200	404881	1	3	1	5	0	00000.jpg	1	2	0	0	0	-300	365481	1	3	1	6	0	11000.jpg	1	3	0	0	0	-400	142871	1	3	1	7	0	11011.jpg	4	3	1	1	0	-500	186611	1	3	1	8	0	10000.jpg	1	1	0	0	1	-400	481341	1	3	1	9	0	10010.jpg	1	3	0	0	0	-500	182591	1	3	1	10	0	00011.jpg	3	4	1	0	0	-600	167371	1	3	1	11	0	10011.jpg	3	3	1	0	1	-500	315391	1	3	1	12	0	11111.jpg	4	4	1	1	1	-400	238151	1	3	1	13	0	01100.jpg	2	1	0	1	0	-500	137901	1	3	1	14	0	01110.jpg	2	2	0	1	1	-400	70871	1	3	1	15	0	01010.jpg	1	1	0	0	1	-300	63331	1	3	1	16	0	01110.jpg	2	2	0	1	1	-200	33211	1	3	1	17	0	01100.jpg	2	2	0	1	1	-100	18201	1	3	1	18	0	01001.jpg	1	3	0	0	0	-200	35651	1	3	1	19	0	01001.jpg	1	1	0	0	1	-100	75821	1	3	1	20	0	01000.jpg	1	1	0	0	1	0	40171	1	3	1	21	0	10011.jpg	3	3	1	0	1	100	198731	1	3	1	22	0	00101.jpg	1	2	0	0	0	0	185361	1	3	1	23	0	11101.jpg	2	4	0	1	0	-100	267151	1	3	1	24	0	00111.jpg	3	1	1	0	0	-200	126941	1	3	1	25	0	11011.jpg	4	1	1	1	0	-300	132591	1	3	1	26	0	11110.jpg	2	2	0	1	1	-200	132161	1	3	1	27	0	01010.jpg	1	1	0	0	1	-100	158161	1	3	1	28	0	11101.jpg	2	1	0	1	0	-200	272881	1	3	1	29	0	11100.jpg	2	2	0	1	1	-100	618911	1	3	1	30	0	10101.jpg	2	1	0	1	0	-200	100181	1	3	1	31	0	00010.jpg	1	1	0	0	1	-100	427701	1	3	1	32	0	10101.jpg	2	2	0	1	1	0	55391	1	3	2	33	0	11001.jpg	2	2	0	1	1	100	30401	1	3	2	34	0	00101.jpg	1	1	0	0	1	200	40861	1	3	2	35	0	11000.jpg	1	2	0	0	0	100	35791	1	3	2	36	0	01101.jpg	2	2	0	1	1	200	84921	1	3	2	37	0	10001.jpg	1	1	0	0	1	300	45381	1	3	2	38	0	00001.jpg	1	1	0	0	1	400	58211	1	3	2	39	0	11010.jpg	2	3	0	1	0	300	216771	1	3	2	40	0	00011.jpg	3	1	1	0	0	200	163221	1	3	2	41	0	01101.jpg	2	2	0	1	1	300	143821	1	3	2	42	0	01111.jpg	4	2	1	1	0	200	47821	1	3	2	43	0	11110.jpg	2	2	0	1	1	300	136301	1	3	2	44	0	11100.jpg	2	2	0	1	1	400	44231	1	3	2	45	0	01111.jpg	4	4	1	1	1	500	82371	1	3	2	46	0	00110.jpg	1	3	0	0	0	400	269961	1	3	2	47	0	00100.jpg	1	1	0	0	1	500	60041	1	3	2	48	0	10010.jpg	1	1	0	0	1	600	46371	1	3	2	49	0	10011.jpg	3	1	1	0	0	500	25251	1	3	2	50	0	11111.jpg	4	4	1	1	1	600	75191	1	3	2	51	0	00000.jpg	1	1	0	0	1	700	113461	1	3	2	52	0	00101.jpg	1	1	0	0	1	800	84051	1	3	2	53	0	00100.jpg	1	1	0	0	1	900	59491	1	3	2	54	0	01111.jpg	4	4	1	1	1	1000	40091	1	3	2	55	0	10100.jpg	1	2	0	0	0	900	174811	1	3	2	56	0	00011.jpg	3	3	1	0	1	1000	102131	1	3	2	57	0	00111.jpg	3	3	1	0	1	1100	36771	1	3	2	58	0	11010.jpg	2	2	0	1	1	1200	74351	1	3	2	59	0	01011.jpg	3	3	1	0	1	1300	86981	1	3	2	60	0	00110.jpg	1	1	0	0	1	1400	39681	1	3	2	61	0	00010.jpg	1	1	0	0	1	1500	24831	1	3	2	62	0	00001.jpg	1	1	0	0	1	1600	61911	1	3	2	63	0	01110.jpg	2	2	0	1	1	1700	55601	1	3	2	64	0	10010.jpg	1	1	0	0	1	1800	35341	1	3	3	65	0	10101.jpg	2	1	0	1	0	1700	59301	1	3	3	66	0	11101.jpg	2	2	0	1	1	1800	47731	1	3	3	67	0	01000.jpg	1	1	0	0	1	1900	93351	1	3	3	68	0	11011.jpg	4	4	1	1	1	2000	49481	1	3	3	69	0	01001.jpg	1	1	0	0	1	2100	120921	1	3	3	70	0	00111.jpg	3	3	1	0	1	2200	28431	1	3	3	71	0	10111.jpg	4	3	1	1	0	2100	78251	1	3	3	72	0	10000.jpg	1	1	0	0	1	2200	132791	1	3	3	73	0	11001.jpg	2	2	0	1	1	2300	58771	1	3	3	74	0	10000.jpg	1	1	0	0	1	2400	66981	1	3	3	75	0	00001.jpg	1	1	0	0	1	2500	29441	1	3	3	76	0	10110.jpg	2	2	0	1	1	2600	145961	1	3	3	77	0	11000.jpg	1	2	0	0	0	2500	88531	1	3	3	78	0	10111.jpg	4	4	1	1	1	2600	110731	1	3	3	79	0	01011.jpg	3	3	1	0	1	2700	49111	1	3	3	80	0	01000.jpg	1	1	0	0	1	2800	17231	1	3	3	81	0	00000.jpg	1	1	0	0	1	2900	18151	1	3	3	82	0	00100.jpg	1	1	0	0	1	3000	33841	1	3	3	83	0	10111.jpg	4	4	1	1	1	3100	36581	1	3	3	84	0	10110.jpg	2	2	0	1	1	3200	44331	1	3	3	85	0	01100.jpg	2	2	0	1	1	3300	75341	1	3	3	86	0	11010.jpg	2	2	0	1	1	3400	61771	1	3	3	87	0	01011.jpg	3	3	1	0	1	3500	27391	1	3	3	88	0	01010.jpg	1	1	0	0	1	3600	26091	1	3	3	89	0	00010.jpg	1	1	0	0	1	3700	39601	1	3	3	90	0	10001.jpg	1	1	0	0	1	3800	39231	1	3	3	91	0	11111.jpg	4	4	1	1	1	3900	29741	1	3	3	92	0	11110.jpg	2	2	0	1	1	4000	32791	1	3	3	93	0	11100.jpg	2	2	0	1	1	4100	31971	1	3	3	94	0	10001.jpg	1	1	0	0	1	4200	37091	1	3	3	95	0	11001.jpg	2	1	0	1	0	4100	22661	1	3	3	96	0	10110.jpg	2	2	0	1	1	4200	33601	1	3	0	97	1	01010pt.jpg	2	2	0	1	1	4200	33601	1	3	0	98	1	11110pt.jpg	2	2	0	1	1	4200	33601	1	3	0	99	1	10101pt.jpg	2	2	0	1	1	4200	33601	1	3	0	100	1	11111pt.jpg	2	2	0	1	1	4200	33601	1	3	0	101	1	01000pt.jpg	2	2	0	1	1	4200	33601	1	3	0	102	1	00101pt.jpg	2	2	0	1	1	4200	33601	1	3	0	103	1	11011pt.jpg	2	2	0	1	1	4200	33601	1	3	0	104	1	00111pt.jpg	2	2	0	1	1	4200	33601	2	1	1	1	0	01010.jpg	2	4	0	1	0	-100	271561	2	1	1	2	0	10011.jpg	2	3	0	1	0	-200	54531	2	1	1	3	0	01101.jpg	1	1	0	0	1	-100	333971	2	1	1	4	0	00100.jpg	1	2	0	0	0	-200	214121	2	1	1	5	0	10110.jpg	4	3	1	1	0	-300	157651	2	1	1	6	0	10101.jpg	3	3	1	0	1	-200	192141	2	1	1	7	0	01011.jpg	2	2	0	1	1	-100	70391	2	1	1	8	0	00001.jpg	1	1	0	0	1	0	66841	2	1	1	9	0	11101.jpg	3	3	1	0	1	100	212991	2	1	1	10	0	01100.jpg	1	1	0	0	1	200	122641	2	1	1	11	0	10101.jpg	3	3	1	0	1	300	46781	2	1	1	12	0	11001.jpg	1	3	0	0	0	200	210521	2	1	1	13	0	11111.jpg	4	4	1	1	1	300	140021	2	1	1	14	0	10100.jpg	3	3	1	0	1	400	53131	2	1	1	15	0	00011.jpg	2	2	0	1	1	500	58301	2	1	1	16	0	11110.jpg	4	4	1	1	1	600	89731	2	1	1	17	0	11100.jpg	3	3	1	0	1	700	69351	2	1	1	18	0	00010.jpg	2	2	0	1	1	800	44331	2	1	1	19	0	00101.jpg	1	1	0	0	1	900	303851	2	1	1	20	0	00100.jpg	1	1	0	0	1	1000	185941	2	1	1	21	0	01000.jpg	1	1	0	0	1	1100	160041	2	1	1	22	0	01000.jpg	1	1	0	0	1	1200	39551	2	1	1	23	0	01011.jpg	2	2	0	1	1	1300	35261	2	1	1	24	0	10101.jpg	3	3	1	0	1	1400	72731	2	1	1	25	0	00000.jpg	1	1	0	0	1	1500	76161	2	1	1	26	0	01100.jpg	1	1	0	0	1	1600	62161	2	1	1	27	0	01101.jpg	1	1	0	0	1	1700	29781	2	1	1	28	0	10000.jpg	1	3	0	0	0	1600	290421	2	1	1	29	0	10100.jpg	3	3	1	0	1	1700	85681	2	1	1	30	0	00110.jpg	2	2	0	1	1	1800	120201	2	1	1	31	0	11100.jpg	3	3	1	0	1	1900	50521	2	1	1	32	0	11110.jpg	4	4	1	1	1	2000	115631	2	1	2	33	0	10010.jpg	2	4	0	1	0	1900	247811	2	1	2	34	0	11110.jpg	4	2	1	1	0	1800	35101	2	1	2	35	0	01010.jpg	2	2	0	1	1	1900	35371	2	1	2	36	0	11000.jpg	1	1	0	0	1	2000	53961	2	1	2	37	0	10010.jpg	2	2	0	1	1	2100	67091	2	1	2	38	0	00000.jpg	1	1	0	0	1	2200	65211	2	1	2	39	0	11010.jpg	2	2	0	1	1	2300	42371	2	1	2	40	0	10011.jpg	2	2	0	1	1	2400	63241	2	1	2	41	0	00111.jpg	2	2	0	1	1	2500	36891	2	1	2	42	0	01111.jpg	2	2	0	1	1	2600	28771	2	1	2	43	0	11100.jpg	3	3	1	0	1	2700	56831	2	1	2	44	0	01000.jpg	1	1	0	0	1	2800	40571	2	1	2	45	0	00011.jpg	2	2	0	1	1	2900	27441	2	1	2	46	0	01001.jpg	1	1	0	0	1	3000	26271	2	1	2	47	0	11010.jpg	2	2	0	1	1	3100	34421	2	1	2	48	0	11101.jpg	3	3	1	0	1	3200	43871	2	1	2	49	0	00010.jpg	2	2	0	1	1	3300	22831	2	1	2	50	0	01001.jpg	1	1	0	0	1	3400	41281	2	1	2	51	0	11000.jpg	1	1	0	0	1	3500	52451	2	1	2	52	0	11011.jpg	2	2	0	1	1	3600	27641	2	1	2	53	0	10000.jpg	1	1	0	0	1	3700	36551	2	1	2	54	0	10111.jpg	4	4	1	1	1	3800	73731	2	1	2	55	0	01111.jpg	2	2	0	1	1	3900	31341	2	1	2	56	0	11101.jpg	3	3	1	0	1	4000	26571	2	1	2	57	0	11011.jpg	2	2	0	1	1	4100	29751	2	1	2	58	0	10011.jpg	2	2	0	1	1	4200	25461	2	1	2	59	0	10110.jpg	4	4	1	1	1	4300	31081	2	1	2	60	0	11010.jpg	2	2	0	1	1	4400	17591	2	1	2	61	0	11001.jpg	1	1	0	0	1	4500	82831	2	1	2	62	0	01011.jpg	2	2	0	1	1	4600	21911	2	1	2	63	0	01101.jpg	1	1	0	0	1	4700	30661	2	1	2	64	0	01110.jpg	2	2	0	1	1	4800	34301	2	1	3	65	0	00000.jpg	1	1	0	0	1	4900	57671	2	1	3	66	0	10000.jpg	1	1	0	0	1	5000	29441	2	1	3	67	0	01110.jpg	2	2	0	1	1	5100	23641	2	1	3	68	0	10110.jpg	4	4	1	1	1	5200	29591	2	1	3	69	0	10001.jpg	1	1	0	0	1	5300	26871	2	1	3	70	0	00110.jpg	2	2	0	1	1	5400	22691	2	1	3	71	0	10001.jpg	1	1	0	0	1	5500	23631	2	1	3	72	0	01010.jpg	2	2	0	1	1	5600	26691	2	1	3	73	0	01110.jpg	2	2	0	1	1	5700	14991	2	1	3	74	0	10001.jpg	1	1	0	0	1	5800	30561	2	1	3	75	0	11011.jpg	2	2	0	1	1	5900	27261	2	1	3	76	0	00010.jpg	2	2	0	1	1	6000	27071	2	1	3	77	0	00011.jpg	2	2	0	1	1	6100	16641	2	1	3	78	0	00101.jpg	1	1	0	0	1	6200	27091	2	1	3	79	0	00110.jpg	2	2	0	1	1	6300	16101	2	1	3	80	0	00111.jpg	2	2	0	1	1	6400	17141	2	1	3	81	0	11001.jpg	1	1	0	0	1	6500	26941	2	1	3	82	0	10111.jpg	4	4	1	1	1	6600	38031	2	1	3	83	0	00001.jpg	1	1	0	0	1	6700	19801	2	1	3	84	0	01100.jpg	1	1	0	0	1	6800	24611	2	1	3	85	0	00100.jpg	1	1	0	0	1	6900	36831	2	1	3	86	0	01111.jpg	2	2	0	1	1	7000	37621	2	1	3	87	0	10100.jpg	3	3	1	0	1	7100	62511	2	1	3	88	0	00001.jpg	1	1	0	0	1	7200	26681	2	1	3	89	0	00111.jpg	2	2	0	1	1	7300	38011	2	1	3	90	0	01001.jpg	1	1	0	0	1	7400	19781	2	1	3	91	0	10010.jpg	2	2	0	1	1	7500	31971	2	1	3	92	0	11111.jpg	4	4	1	1	1	7600	28601	2	1	3	93	0	00101.jpg	1	1	0	0	1	7700	22741	2	1	3	94	0	11000.jpg	1	1	0	0	1	7800	32151	2	1	3	95	0	11111.jpg	4	4	1	1	1	7900	34321	2	1	3	96	0	10111.jpg	4	4	1	1	1	8000	34001	2	1	0	97	1	10101pt.jpg	4	4	1	1	0	8000	88961	2	1	0	98	1	11011pt.jpg	4	1	1	1	0	8000	166271	2	1	0	99	1	00111pt.jpg	4	1	1	1	0	8000	281751	2	1	0	100	1	00101pt.jpg	4	1	1	1	1	8000	297501	2	1	0	101	1	01000pt.jpg	4	1	1	1	1	8000	192451	2	1	0	102	1	11110pt.jpg	4	3	1	1	0	8000	79931	2	1	0	103	1	01010pt.jpg	4	2	1	1	1	8000	403191	2	1	0	104	1	11111pt.jpg	4	4	1	1	1	8000	53931	2	2	1	1	0	10111.jpg	4	4	1	1	1	100	130101	2	2	1	2	0	10100.jpg	2	3	0	1	0	0	39301	2	2	1	3	0	00010.jpg	3	2	1	0	0	-100	46131	2	2	1	4	0	10101.jpg	2	3	0	1	0	-200	159581	2	2	1	5	0	10110.jpg	4	4	1	1	1	-100	113841	2	2	1	6	0	11000.jpg	2	1	0	1	0	-200	97371	2	2	1	7	0	00011.jpg	3	2	1	0	0	-300	41081	2	2	1	8	0	00111.jpg	3	4	1	0	0	-400	233681	2	2	1	9	0	11001.jpg	2	3	0	1	0	-500	479371	2	2	1	10	0	10110.jpg	4	3	1	1	0	-600	156771	2	2	1	11	0	01001.jpg	1	1	0	0	1	-500	88961	2	2	1	12	0	00111.jpg	3	4	1	0	0	-600	452701	2	2	1	13	0	10001.jpg	1	3	0	0	0	-700	171551	2	2	1	14	0	11111.jpg	4	4	1	1	1	-600	273891	2	2	1	15	0	11000.jpg	2	2	0	1	1	-500	478371	2	2	1	16	0	10111.jpg	4	4	1	1	1	-400	241871	2	2	1	17	0	00100.jpg	1	1	0	0	1	-300	71561	2	2	1	18	0	01100.jpg	2	2	0	1	1	-200	114391	2	2	1	19	0	00011.jpg	3	2	1	0	0	-300	369491	2	2	1	20	0	10011.jpg	3	3	1	0	1	-200	133431	2	2	1	21	0	01101.jpg	2	2	0	1	1	-100	179951	2	2	1	22	0	11101.jpg	2	4	0	1	0	-200	89701	2	2	1	23	0	01111.jpg	4	2	1	1	0	-300	153891	2	2	1	24	0	11110.jpg	4	4	1	1	1	-200	91481	2	2	1	25	0	01011.jpg	3	4	1	0	0	-300	140221	2	2	1	26	0	11010.jpg	4	3	1	1	0	-400	159731	2	2	1	27	0	10100.jpg	2	1	0	1	0	-500	497721	2	2	1	28	0	01101.jpg	2	2	0	1	1	-400	194301	2	2	1	29	0	01000.jpg	1	2	0	0	0	-500	62211	2	2	1	30	0	11111.jpg	4	4	1	1	1	-400	547401	2	2	1	31	0	01010.jpg	3	2	1	0	0	-500	336621	2	2	1	32	0	01000.jpg	1	2	0	0	0	-600	60031	2	2	2	33	0	10010.jpg	3	3	1	0	1	-500	250211	2	2	2	34	0	10001.jpg	1	3	0	0	0	-600	87561	2	2	2	35	0	00010.jpg	3	3	1	0	1	-500	392471	2	2	2	36	0	11100.jpg	2	2	0	1	1	-400	123741	2	2	2	37	0	10000.jpg	1	1	0	0	1	-300	165361	2	2	2	38	0	00001.jpg	1	1	0	0	1	-200	74821	2	2	2	39	0	01011.jpg	3	1	1	0	0	-300	574251	2	2	2	40	0	00101.jpg	1	2	0	0	0	-400	172401	2	2	2	41	0	01001.jpg	1	2	0	0	0	-500	305901	2	2	2	42	0	10100.jpg	2	4	0	1	0	-600	349101	2	2	2	43	0	11011.jpg	4	3	1	1	0	-700	67711	2	2	2	44	0	11011.jpg	4	3	1	1	0	-800	450651	2	2	2	45	0	10111.jpg	4	3	1	1	0	-900	254861	2	2	2	46	0	00001.jpg	1	1	0	0	1	-800	379291	2	2	2	47	0	00001.jpg	1	1	0	0	1	-700	26371	2	2	2	48	0	01110.jpg	4	3	1	1	0	-800	322681	2	2	2	49	0	01011.jpg	3	2	1	0	0	-900	571121	2	2	2	50	0	01110.jpg	4	4	1	1	1	-800	190361	2	2	2	51	0	11100.jpg	2	2	0	1	1	-700	225621	2	2	2	52	0	11001.jpg	2	1	0	1	0	-800	268921	2	2	2	53	0	10101.jpg	2	3	0	1	0	-900	289061	2	2	2	54	0	10010.jpg	3	3	1	0	1	-800	53261	2	2	2	55	0	00101.jpg	1	2	0	0	0	-900	304101	2	2	2	56	0	00010.jpg	3	3	1	0	1	-800	96031	2	2	2	57	0	01101.jpg	2	2	0	1	1	-700	44111	2	2	2	58	0	01110.jpg	4	4	1	1	1	-600	91001	2	2	2	59	0	11000.jpg	2	2	0	1	1	-500	93051	2	2	2	60	0	01100.jpg	2	2	0	1	1	-400	34201	2	2	2	61	0	10011.jpg	3	3	1	0	1	-300	37261	2	2	2	62	0	01111.jpg	4	4	1	1	1	-200	46411	2	2	2	63	0	00100.jpg	1	1	0	0	1	-100	89831	2	2	2	64	0	10001.jpg	1	1	0	0	1	0	68721	2	2	3	65	0	01000.jpg	1	2	0	0	0	-100	59911	2	2	3	66	0	01010.jpg	3	3	1	0	1	0	243021	2	2	3	67	0	10010.jpg	3	3	1	0	1	100	62681	2	2	3	68	0	10000.jpg	1	1	0	0	1	200	84511	2	2	3	69	0	11101.jpg	2	2	0	1	1	300	54331	2	2	3	70	0	11001.jpg	2	2	0	1	1	400	61941	2	2	3	71	0	01001.jpg	1	1	0	0	1	500	58421	2	2	3	72	0	01100.jpg	2	2	0	1	1	600	89621	2	2	3	73	0	01111.jpg	4	4	1	1	1	700	42441	2	2	3	74	0	11010.jpg	4	4	1	1	1	800	57061	2	2	3	75	0	01010.jpg	3	3	1	0	1	900	78781	2	2	3	76	0	00100.jpg	1	1	0	0	1	1000	72751	2	2	3	77	0	11110.jpg	4	4	1	1	1	1100	140421	2	2	3	78	0	10101.jpg	2	1	0	1	0	1000	69841	2	2	3	79	0	00011.jpg	3	3	1	0	1	1100	80561	2	2	3	80	0	11100.jpg	2	2	0	1	1	1200	40961	2	2	3	81	0	11110.jpg	4	4	1	1	1	1300	51321	2	2	3	82	0	00000.jpg	1	1	0	0	1	1400	77761	2	2	3	83	0	10000.jpg	1	1	0	0	1	1500	57691	2	2	3	84	0	10110.jpg	4	4	1	1	1	1600	57301	2	2	3	85	0	11111.jpg	4	4	1	1	1	1700	27231	2	2	3	86	0	11101.jpg	2	2	0	1	1	1800	74781	2	2	3	87	0	00101.jpg	1	1	0	0	1	1900	49391	2	2	3	88	0	00110.jpg	3	3	1	0	1	2000	49421	2	2	3	89	0	00110.jpg	3	3	1	0	1	2100	22901	2	2	3	90	0	00111.jpg	3	3	1	0	1	2200	24891	2	2	3	91	0	11011.jpg	4	4	1	1	1	2300	61981	2	2	3	92	0	00000.jpg	1	1	0	0	1	2400	49981	2	2	3	93	0	00000.jpg	1	1	0	0	1	2500	25031	2	2	3	94	0	00110.jpg	3	3	1	0	1	2600	102681	2	2	3	95	0	11010.jpg	4	4	1	1	1	2700	31541	2	2	3	96	0	10011.jpg	3	3	1	0	1	2800	54041	2	2	0	97	1	00101pt.jpg	3	3	1	0	0	2800	54041	2	2	0	98	1	01010pt.jpg	3	3	1	0	0	2800	54041	2	2	0	99	1	01000pt.jpg	3	3	1	0	0	2800	54041	2	2	0	100	1	11111pt.jpg	3	3	1	0	0	2800	54041	2	2	0	101	1	11110pt.jpg	3	3	1	0	1	2800	54041	2	2	0	102	1	10101pt.jpg	3	3	1	0	1	2800	54041	2	2	0	103	1	11011pt.jpg	3	3	1	0	0	2800	54041	2	2	0	104	1	00111pt.jpg	3	3	1	0	0	2800	54041	2	3	1	1	0	00001.jpg	1	1	0	0	1	100	232961	2	3	1	2	0	00100.jpg	1	3	0	0	0	0	100051	2	3	1	3	0	11110.jpg	2	3	0	1	0	-100	41501	2	3	1	4	0	00010.jpg	1	2	0	0	0	-200	309271	2	3	1	5	0	01000.jpg	1	1	0	0	1	-100	58671	2	3	1	6	0	10110.jpg	2	2	0	1	1	0	192891	2	3	1	7	0	11000.jpg	1	1	0	0	1	100	91751	2	3	1	8	0	10101.jpg	2	3	0	1	0	0	64331	2	3	1	9	0	11101.jpg	2	3	0	1	0	-100	181511	2	3	1	10	0	00101.jpg	1	1	0	0	1	0	109391	2	3	1	11	0	00010.jpg	1	4	0	0	0	-100	321651	2	3	1	12	0	01011.jpg	3	1	1	0	0	-200	73831	2	3	1	13	0	10011.jpg	3	4	1	0	0	-300	366561	2	3	1	14	0	00111.jpg	3	4	1	0	0	-400	249821	2	3	1	15	0	10111.jpg	4	4	1	1	1	-300	273841	2	3	1	16	0	11101.jpg	2	2	0	1	1	-200	212071	2	3	1	17	0	01110.jpg	2	2	0	1	1	-100	331761	2	3	1	18	0	11100.jpg	2	2	0	1	1	0	280971	2	3	1	19	0	11010.jpg	2	3	0	1	0	-100	273501	2	3	1	20	0	11011.jpg	4	2	1	1	0	-200	39851	2	3	1	21	0	11111.jpg	4	4	1	1	1	-100	314011	2	3	1	22	0	11010.jpg	2	2	0	1	1	0	122971	2	3	1	23	0	11000.jpg	1	1	0	0	1	100	115331	2	3	1	24	0	01010.jpg	1	1	0	0	1	200	199701	2	3	1	25	0	11101.jpg	2	3	0	1	0	100	131471	2	3	1	26	0	10110.jpg	2	2	0	1	1	200	187421	2	3	1	27	0	10010.jpg	1	2	0	0	0	100	61531	2	3	1	28	0	11000.jpg	1	1	0	0	1	200	112351	2	3	1	29	0	10000.jpg	1	1	0	0	1	300	58511	2	3	1	30	0	00110.jpg	1	2	0	0	0	200	116671	2	3	1	31	0	00011.jpg	3	3	1	0	1	300	197841	2	3	1	32	0	00000.jpg	1	1	0	0	1	400	96581	2	3	2	33	0	11110.jpg	2	2	0	1	1	500	64011	2	3	2	34	0	00001.jpg	1	1	0	0	1	600	58741	2	3	2	35	0	01010.jpg	1	2	0	0	0	500	79181	2	3	2	36	0	11001.jpg	2	3	0	1	0	400	91061	2	3	2	37	0	01100.jpg	2	2	0	1	1	500	137351	2	3	2	38	0	00000.jpg	1	1	0	0	1	600	34271	2	3	2	39	0	10001.jpg	1	2	0	0	0	500	148991	2	3	2	40	0	01110.jpg	2	2	0	1	1	600	39751	2	3	2	41	0	01001.jpg	1	1	0	0	1	700	47941	2	3	2	42	0	01000.jpg	1	1	0	0	1	800	26111	2	3	2	43	0	01101.jpg	2	4	0	1	0	700	60441	2	3	2	44	0	11111.jpg	4	4	1	1	1	800	40271	2	3	2	45	0	11111.jpg	4	4	1	1	1	900	23211	2	3	2	46	0	00000.jpg	1	1	0	0	1	1000	33401	2	3	2	47	0	01111.jpg	4	2	1	1	0	900	60071	2	3	2	48	0	10111.jpg	4	4	1	1	1	1000	21591	2	3	2	49	0	01001.jpg	1	1	0	0	1	1100	37361	2	3	2	50	0	00100.jpg	1	2	0	0	0	1000	65071	2	3	2	51	0	01101.jpg	2	1	0	1	0	900	82881	2	3	2	52	0	11010.jpg	2	2	0	1	1	1000	113971	2	3	2	53	0	00011.jpg	3	3	1	0	1	1100	132621	2	3	2	54	0	01011.jpg	3	4	1	0	0	1000	196751	2	3	2	55	0	10000.jpg	1	1	0	0	1	1100	43451	2	3	2	56	0	00110.jpg	1	2	0	0	0	1000	56121	2	3	2	57	0	00101.jpg	1	1	0	0	1	1100	74121	2	3	2	58	0	00010.jpg	1	1	0	0	1	1200	149171	2	3	2	59	0	01001.jpg	1	1	0	0	1	1300	44101	2	3	2	60	0	11001.jpg	2	1	0	1	0	1200	40261	2	3	2	61	0	01111.jpg	4	2	1	1	0	1100	262091	2	3	2	62	0	10011.jpg	3	1	1	0	0	1000	95611	2	3	2	63	0	10100.jpg	1	1	0	0	1	1100	86891	2	3	2	64	0	00101.jpg	1	1	0	0	1	1200	138141	2	3	3	65	0	10101.jpg	2	1	0	1	0	1100	145701	2	3	3	66	0	10010.jpg	1	2	0	0	0	1000	133091	2	3	3	67	0	01000.jpg	1	1	0	0	1	1100	49691	2	3	3	68	0	01111.jpg	4	2	1	1	0	1000	82441	2	3	3	69	0	00001.jpg	1	1	0	0	1	1100	146971	2	3	3	70	0	10110.jpg	2	2	0	1	1	1200	36221	2	3	3	71	0	11011.jpg	4	3	1	1	0	1100	38221	2	3	3	72	0	01100.jpg	2	1	0	1	0	1000	57551	2	3	3	73	0	00100.jpg	1	1	0	0	1	1100	25341	2	3	3	74	0	10111.jpg	4	4	1	1	1	1200	41701	2	3	3	75	0	01011.jpg	3	3	1	0	1	1300	77791	2	3	3	76	0	01110.jpg	2	2	0	1	1	1400	29791	2	3	3	77	0	11001.jpg	2	1	0	1	0	1300	39091	2	3	3	78	0	10000.jpg	1	1	0	0	1	1400	56501	2	3	3	79	0	11011.jpg	4	3	1	1	0	1300	28401	2	3	3	80	0	00111.jpg	3	3	1	0	1	1400	53341	2	3	3	81	0	11100.jpg	2	2	0	1	1	1500	109461	2	3	3	82	0	00011.jpg	3	3	1	0	1	1600	54691	2	3	3	83	0	10001.jpg	1	1	0	0	1	1700	57321	2	3	3	84	0	01100.jpg	2	1	0	1	0	1600	112221	2	3	3	85	0	11100.jpg	2	2	0	1	1	1700	52711	2	3	3	86	0	00110.jpg	1	2	0	0	0	1600	45251	2	3	3	87	0	10100.jpg	1	2	0	0	0	1500	41541	2	3	3	88	0	00111.jpg	3	3	1	0	1	1600	50181	2	3	3	89	0	10101.jpg	2	1	0	1	0	1500	144991	2	3	3	90	0	10010.jpg	1	2	0	0	0	1400	41451	2	3	3	91	0	11110.jpg	2	2	0	1	1	1500	74261	2	3	3	92	0	01010.jpg	1	1	0	0	1	1600	117951	2	3	3	93	0	10100.jpg	1	1	0	0	1	1700	51411	2	3	3	94	0	10011.jpg	3	3	1	0	1	1800	35271	2	3	3	95	0	10001.jpg	1	2	0	0	0	1700	111791	2	3	3	96	0	01101.jpg	2	2	0	1	1	1800	43161	2	3	0	97	1	10101pt.jpg	2	2	0	1	0	1800	43161	2	3	0	98	1	11111pt.jpg	2	2	0	1	0	1800	43161	2	3	0	99	1	01010pt.jpg	2	2	0	1	1	1800	43161	2	3	0	100	1	00101pt.jpg	2	2	0	1	1	1800	43161	2	3	0	101	1	11110pt.jpg	2	2	0	1	1	1800	43161	2	3	0	102	1	11011pt.jpg	2	2	0	1	0	1800	43161	2	3	0	103	1	01000pt.jpg	2	2	0	1	0	1800	43161	2	3	0	104	1	00111pt.jpg	2	2	0	1	1	1800	43161	3	1	1	1	0	11010.jpg	2	2	0	1	1	100	203091	3	1	1	2	0	10101.jpg	3	3	1	0	1	200	116341	3	1	1	3	0	01010.jpg	2	2	0	1	1	300	86261	3	1	1	4	0	00101.jpg	1	1	0	0	1	400	154171	3	1	1	5	0	00001.jpg	1	1	0	0	1	500	126571	3	1	1	6	0	01101.jpg	1	2	0	0	0	400	202871	3	1	1	7	0	10010.jpg	2	4	0	1	0	300	209561	3	1	1	8	0	00000.jpg	1	1	0	0	1	400	71021	3	1	1	9	0	11100.jpg	3	3	1	0	1	500	86111	3	1	1	10	0	10000.jpg	1	3	0	0	0	400	31241	3	1	1	11	0	01001.jpg	1	1	0	0	1	500	41981	3	1	1	12	0	11001.jpg	1	4	0	0	0	400	175441	3	1	1	13	0	00000.jpg	1	1	0	0	1	500	55051	3	1	1	14	0	10101.jpg	3	3	1	0	1	600	201441	3	1	1	15	0	01100.jpg	1	1	0	0	1	700	179051	3	1	1	16	0	10100.jpg	3	3	1	0	1	800	73341	3	1	1	17	0	01111.jpg	2	1	0	1	0	700	78661	3	1	1	18	0	11101.jpg	3	3	1	0	1	800	79851	3	1	1	19	0	01100.jpg	1	2	0	0	0	700	60181	3	1	1	20	0	01100.jpg	1	1	0	0	1	800	103301	3	1	1	21	0	00100.jpg	1	2	0	0	0	700	112301	3	1	1	22	0	00011.jpg	2	3	0	1	0	600	141961	3	1	1	23	0	10011.jpg	2	3	0	1	0	500	36031	3	1	1	24	0	11100.jpg	3	4	1	0	0	400	46451	3	1	1	25	0	00011.jpg	2	1	0	1	0	300	59151	3	1	1	26	0	00101.jpg	1	1	0	0	1	400	99911	3	1	1	27	0	10100.jpg	3	3	1	0	1	500	131521	3	1	1	28	0	01110.jpg	2	2	0	1	1	600	52511	3	1	1	29	0	00010.jpg	2	2	0	1	1	700	64261	3	1	1	30	0	11010.jpg	2	3	0	1	0	600	64101	3	1	1	31	0	10101.jpg	3	3	1	0	1	700	163621	3	1	1	32	0	10010.jpg	2	2	0	1	1	800	63801	3	1	2	33	0	01000.jpg	1	1	0	0	1	900	26311	3	1	2	34	0	00101.jpg	1	2	0	0	0	800	52301	3	1	2	35	0	00010.jpg	2	2	0	1	1	900	28531	3	1	2	36	0	10110.jpg	4	4	1	1	1	1000	96751	3	1	2	37	0	11111.jpg	4	4	1	1	1	1100	93531	3	1	2	38	0	01011.jpg	2	2	0	1	1	1200	61621	3	1	2	39	0	00100.jpg	1	1	0	0	1	1300	92521	3	1	2	40	0	01000.jpg	1	1	0	0	1	1400	51481	3	1	2	41	0	01110.jpg	2	2	0	1	1	1500	46941	3	1	2	42	0	00010.jpg	2	2	0	1	1	1600	39721	3	1	2	43	0	00110.jpg	2	4	0	1	0	1500	143881	3	1	2	44	0	11110.jpg	4	4	1	1	1	1600	35741	3	1	2	45	0	11011.jpg	2	4	0	1	0	1500	99751	3	1	2	46	0	10011.jpg	2	2	0	1	1	1600	30161	3	1	2	47	0	10110.jpg	4	4	1	1	1	1700	24881	3	1	2	48	0	01101.jpg	1	2	0	0	0	1600	102601	3	1	2	49	0	01001.jpg	1	1	0	0	1	1700	29391	3	1	2	50	0	00001.jpg	1	1	0	0	1	1800	32541	3	1	2	51	0	00100.jpg	1	2	0	0	0	1700	37161	3	1	2	52	0	10001.jpg	1	2	0	0	0	1600	58481	3	1	2	53	0	01010.jpg	2	2	0	1	1	1700	45661	3	1	2	54	0	10110.jpg	4	4	1	1	1	1800	37451	3	1	2	55	0	00110.jpg	2	2	0	1	1	1900	68101	3	1	2	56	0	10011.jpg	2	2	0	1	1	2000	166501	3	1	2	57	0	11000.jpg	1	1	0	0	1	2100	63531	3	1	2	58	0	01010.jpg	2	1	0	1	0	2000	89881	3	1	2	59	0	11011.jpg	2	2	0	1	1	2100	114451	3	1	2	60	0	01011.jpg	2	1	0	1	0	2000	30601	3	1	2	61	0	11111.jpg	4	4	1	1	1	2100	43781	3	1	2	62	0	10000.jpg	1	1	0	0	1	2200	55951	3	1	2	63	0	11110.jpg	4	4	1	1	1	2300	26921	3	1	2	64	0	01001.jpg	1	1	0	0	1	2400	44171	3	1	3	65	0	01101.jpg	1	1	0	0	1	2500	46161	3	1	3	66	0	00000.jpg	1	1	0	0	1	2600	54111	3	1	3	67	0	00011.jpg	2	1	0	1	0	2500	94101	3	1	3	68	0	00001.jpg	1	1	0	0	1	2600	28191	3	1	3	69	0	11111.jpg	4	4	1	1	1	2700	21621	3	1	3	70	0	00111.jpg	2	2	0	1	1	2800	63811	3	1	3	71	0	11001.jpg	1	3	0	0	0	2700	153811	3	1	3	72	0	10111.jpg	4	4	1	1	1	2800	24461	3	1	3	73	0	10100.jpg	3	2	1	0	0	2700	59011	3	1	3	74	0	11000.jpg	1	1	0	0	1	2800	44811	3	1	3	75	0	01000.jpg	1	1	0	0	1	2900	24471	3	1	3	76	0	11101.jpg	3	2	1	0	0	2800	210701	3	1	3	77	0	10111.jpg	4	4	1	1	1	2900	22521	3	1	3	78	0	11110.jpg	4	4	1	1	1	3000	16651	3	1	3	79	0	10001.jpg	1	1	0	0	1	3100	51831	3	1	3	80	0	01110.jpg	2	2	0	1	1	3200	57041	3	1	3	81	0	11010.jpg	2	1	0	1	0	3100	99481	3	1	3	82	0	10001.jpg	1	1	0	0	1	3200	56891	3	1	3	83	0	11011.jpg	2	3	0	1	0	3100	159411	3	1	3	84	0	10111.jpg	4	4	1	1	1	3200	21361	3	1	3	85	0	11101.jpg	3	2	1	0	0	3100	113861	3	1	3	86	0	10010.jpg	2	2	0	1	1	3200	44601	3	1	3	87	0	10000.jpg	1	2	0	0	0	3100	94341	3	1	3	88	0	11001.jpg	1	1	0	0	1	3200	28011	3	1	3	89	0	01111.jpg	2	2	0	1	1	3300	47071	3	1	3	90	0	01011.jpg	2	2	0	1	1	3400	25431	3	1	3	91	0	11100.jpg	3	3	1	0	1	3500	39711	3	1	3	92	0	00110.jpg	2	2	0	1	1	3600	40221	3	1	3	93	0	01111.jpg	2	2	0	1	1	3700	40861	3	1	3	94	0	11000.jpg	1	1	0	0	1	3800	57311	3	1	3	95	0	00111.jpg	2	2	0	1	1	3900	63591	3	1	3	96	0	00111.jpg	2	2	0	1	1	4000	32081	3	1	0	97	1	11110pt.jpg	2	4	0	1	1	4000	162111	3	1	0	98	1	00111pt.jpg	2	2	0	1	1	4000	102641	3	1	0	99	1	01000pt.jpg	2	1	0	1	1	4000	54351	3	1	0	100	1	10101pt.jpg	2	3	0	1	1	4000	79031	3	1	0	101	1	01010pt.jpg	2	1	0	1	0	4000	88261	3	1	0	102	1	00101pt.jpg	2	1	0	1	1	4000	61751	3	1	0	103	1	11011pt.jpg	2	4	0	1	0	4000	57991	3	1	0	104	1	11111pt.jpg	2	4	0	1	1	4000	126691	3	2	1	1	0	00100.jpg	1	1	0	0	1	100	128851	3	2	1	2	0	10110.jpg	4	4	1	1	1	200	37061	3	2	1	3	0	10111.jpg	4	4	1	1	1	300	34701	3	2	1	4	0	01010.jpg	3	2	1	0	0	200	43461	3	2	1	5	0	10100.jpg	2	3	0	1	0	100	91661	3	2	1	6	0	01001.jpg	1	1	0	0	1	200	79431	3	2	1	7	0	10001.jpg	1	1	0	0	1	300	74671	3	2	1	8	0	01110.jpg	4	2	1	1	0	200	98401	3	2	1	9	0	01010.jpg	3	2	1	0	0	100	69981	3	2	1	10	0	01010.jpg	3	3	1	0	1	200	21181	3	2	1	11	0	10011.jpg	3	3	1	0	1	300	22831	3	2	1	12	0	01101.jpg	2	2	0	1	1	400	99771	3	2	1	13	0	00110.jpg	3	4	1	0	0	300	54261	3	2	1	14	0	11101.jpg	2	3	0	1	0	200	180971	3	2	1	15	0	00011.jpg	3	1	1	0	0	100	178301	3	2	1	16	0	11111.jpg	4	4	1	1	1	200	71641	3	2	1	17	0	00110.jpg	3	4	1	0	0	100	39511	3	2	1	18	0	00010.jpg	3	4	1	0	0	0	65051	3	2	1	19	0	11100.jpg	2	2	0	1	1	100	224531	3	2	1	20	0	10101.jpg	2	2	0	1	1	200	29311	3	2	1	21	0	10000.jpg	1	1	0	0	1	300	36871	3	2	1	22	0	00111.jpg	3	3	1	0	1	400	101401	3	2	1	23	0	10010.jpg	3	4	1	0	0	300	83601	3	2	1	24	0	10110.jpg	4	4	1	1	1	400	50171	3	2	1	25	0	11010.jpg	4	3	1	1	0	300	32981	3	2	1	26	0	00101.jpg	1	1	0	0	1	400	207481	3	2	1	27	0	11011.jpg	4	3	1	1	0	300	43831	3	2	1	28	0	01011.jpg	3	4	1	0	0	200	40151	3	2	1	29	0	01101.jpg	2	1	0	1	0	100	72721	3	2	1	30	0	10100.jpg	2	2	0	1	1	200	64611	3	2	1	31	0	11001.jpg	2	1	0	1	0	100	135631	3	2	1	32	0	11000.jpg	2	2	0	1	1	200	43821	3	2	2	33	0	10111.jpg	4	4	1	1	1	300	104781	3	2	2	34	0	01100.jpg	2	1	0	1	0	200	95641	3	2	2	35	0	01001.jpg	1	1	0	0	1	300	44441	3	2	2	36	0	00111.jpg	3	3	1	0	1	400	61561	3	2	2	37	0	01100.jpg	2	2	0	1	1	500	39751	3	2	2	38	0	00101.jpg	1	2	0	0	0	400	29141	3	2	2	39	0	00101.jpg	1	1	0	0	1	500	25651	3	2	2	40	0	11010.jpg	4	3	1	1	0	400	71451	3	2	2	41	0	10001.jpg	1	2	0	0	0	300	102981	3	2	2	42	0	10010.jpg	3	4	1	0	0	200	114051	3	2	2	43	0	11001.jpg	2	2	0	1	1	300	46851	3	2	2	44	0	01111.jpg	4	3	1	1	0	200	95321	3	2	2	45	0	11110.jpg	4	4	1	1	1	300	45891	3	2	2	46	0	10000.jpg	1	2	0	0	0	200	58291	3	2	2	47	0	00100.jpg	1	2	0	0	0	100	121391	3	2	2	48	0	10101.jpg	2	2	0	1	1	200	102151	3	2	2	49	0	00000.jpg	1	1	0	0	1	300	62471	3	2	2	50	0	11000.jpg	2	1	0	1	0	200	136941	3	2	2	51	0	00010.jpg	3	4	1	0	0	100	174431	3	2	2	52	0	11011.jpg	4	3	1	1	0	0	54251	3	2	2	53	0	10010.jpg	3	3	1	0	1	100	59581	3	2	2	54	0	01011.jpg	3	4	1	0	0	0	53871	3	2	2	55	0	01000.jpg	1	1	0	0	1	100	113301	3	2	2	56	0	01101.jpg	2	2	0	1	1	200	35421	3	2	2	57	0	11110.jpg	4	4	1	1	1	300	34501	3	2	2	58	0	00100.jpg	1	2	0	0	0	200	85921	3	2	2	59	0	01000.jpg	1	1	0	0	1	300	25851	3	2	2	60	0	01100.jpg	2	1	0	1	0	200	31621	3	2	2	61	0	11000.jpg	2	2	0	1	1	300	70201	3	2	2	62	0	10101.jpg	2	2	0	1	1	400	67561	3	2	2	63	0	00001.jpg	1	1	0	0	1	500	27671	3	2	2	64	0	00111.jpg	3	4	1	0	0	400	118021	3	2	3	65	0	10011.jpg	3	4	1	0	0	300	84501	3	2	3	66	0	00011.jpg	3	3	1	0	1	400	88231	3	2	3	67	0	00001.jpg	1	1	0	0	1	500	27461	3	2	3	68	0	11100.jpg	2	2	0	1	1	600	80271	3	2	3	69	0	01110.jpg	4	3	1	1	0	500	84831	3	2	3	70	0	00001.jpg	1	1	0	0	1	600	28471	3	2	3	71	0	11111.jpg	4	4	1	1	1	700	43661	3	2	3	72	0	01001.jpg	1	1	0	0	1	800	21041	3	2	3	73	0	00010.jpg	3	3	1	0	1	900	37821	3	2	3	74	0	01110.jpg	4	3	1	1	0	800	35421	3	2	3	75	0	11111.jpg	4	4	1	1	1	900	61361	3	2	3	76	0	11100.jpg	2	2	0	1	1	1000	45051	3	2	3	77	0	10000.jpg	1	1	0	0	1	1100	56451	3	2	3	78	0	01011.jpg	3	3	1	0	1	1200	82051	3	2	3	79	0	00000.jpg	1	1	0	0	1	1300	27261	3	2	3	80	0	10110.jpg	4	4	1	1	1	1400	22181	3	2	3	81	0	11110.jpg	4	4	1	1	1	1500	20261	3	2	3	82	0	01000.jpg	1	1	0	0	1	1600	15601	3	2	3	83	0	01111.jpg	4	3	1	1	0	1500	32671	3	2	3	84	0	00110.jpg	3	3	1	0	1	1600	86861	3	2	3	85	0	11101.jpg	2	2	0	1	1	1700	41291	3	2	3	86	0	01111.jpg	4	4	1	1	1	1800	53561	3	2	3	87	0	10100.jpg	2	2	0	1	1	1900	28701	3	2	3	88	0	00011.jpg	3	3	1	0	1	2000	92031	3	2	3	89	0	10001.jpg	1	1	0	0	1	2100	26121	3	2	3	90	0	11101.jpg	2	2	0	1	1	2200	23331	3	2	3	91	0	00000.jpg	1	1	0	0	1	2300	19931	3	2	3	92	0	11011.jpg	4	4	1	1	1	2400	78981	3	2	3	93	0	11001.jpg	2	1	0	1	0	2300	44381	3	2	3	94	0	10011.jpg	3	4	1	0	0	2200	53571	3	2	3	95	0	11010.jpg	4	4	1	1	1	2300	23921	3	2	3	96	0	10111.jpg	4	4	1	1	1	2400	35511	3	2	0	97	1	01010pt.jpg	4	4	1	1	1	2400	35511	3	2	0	98	1	11011pt.jpg	4	4	1	1	1	2400	35511	3	2	0	99	1	01000pt.jpg	4	4	1	1	1	2400	35511	3	2	0	100	1	11111pt.jpg	4	4	1	1	1	2400	35511	3	2	0	101	1	10101pt.jpg	4	4	1	1	1	2400	35511	3	2	0	102	1	00111pt.jpg	4	4	1	1	1	2400	35511	3	2	0	103	1	11110pt.jpg	4	4	1	1	1	2400	35511	3	2	0	104	1	00101pt.jpg	4	4	1	1	0	2400	35511	3	3	1	1	0	00101.jpg	1	1	0	0	1	100	92681	3	3	1	2	0	10110.jpg	2	4	0	1	0	0	41781	3	3	1	3	0	01111.jpg	4	2	1	1	0	-100	60841	3	3	1	4	0	10101.jpg	2	2	0	1	1	0	76241	3	3	1	5	0	00000.jpg	1	1	0	0	1	100	29121	3	3	1	6	0	01011.jpg	3	4	1	0	0	0	83791	3	3	1	7	0	01101.jpg	2	1	0	1	0	-100	77971	3	3	1	8	0	00010.jpg	1	3	0	0	0	-200	57261	3	3	1	9	0	01110.jpg	2	4	0	1	0	-300	121761	3	3	1	10	0	00110.jpg	1	2	0	0	0	-400	43311	3	3	1	11	0	00111.jpg	3	2	1	0	0	-500	113101	3	3	1	12	0	00011.jpg	3	3	1	0	1	-400	35291	3	3	1	13	0	01101.jpg	2	1	0	1	0	-500	81111	3	3	1	14	0	10000.jpg	1	1	0	0	1	-400	155621	3	3	1	15	0	10010.jpg	1	4	0	0	0	-500	131891	3	3	1	16	0	10110.jpg	2	4	0	1	0	-600	29971	3	3	1	17	0	00001.jpg	1	1	0	0	1	-500	106941	3	3	1	18	0	01000.jpg	1	1	0	0	1	-400	24921	3	3	1	19	0	00100.jpg	1	2	0	0	0	-500	35851	3	3	1	20	0	00000.jpg	1	1	0	0	1	-400	11141	3	3	1	21	0	11111.jpg	4	4	1	1	1	-300	98151	3	3	1	22	0	00011.jpg	3	1	1	0	0	-400	85331	3	3	1	23	0	00001.jpg	1	1	0	0	1	-300	19621	3	3	1	24	0	00101.jpg	1	1	0	0	1	-200	146131	3	3	1	25	0	11100.jpg	2	2	0	1	1	-100	48041	3	3	1	26	0	10010.jpg	1	1	0	0	1	0	82141	3	3	1	27	0	01010.jpg	1	1	0	0	1	100	23821	3	3	1	28	0	01110.jpg	2	1	0	1	0	0	30321	3	3	1	29	0	01010.jpg	1	1	0	0	1	100	26551	3	3	1	30	0	10100.jpg	1	2	0	0	0	0	79821	3	3	1	31	0	01101.jpg	2	1	0	1	0	-100	83831	3	3	1	32	0	01111.jpg	4	3	1	1	0	-200	127771	3	3	2	33	0	01011.jpg	3	3	1	0	1	-100	46731	3	3	2	34	0	10011.jpg	3	3	1	0	1	0	53031	3	3	2	35	0	01111.jpg	4	4	1	1	1	100	22921	3	3	2	36	0	00010.jpg	1	1	0	0	1	200	31841	3	3	2	37	0	11101.jpg	2	4	0	1	0	100	131471	3	3	2	38	0	11001.jpg	2	1	0	1	0	0	31801	3	3	2	39	0	10100.jpg	1	2	0	0	0	-100	31261	3	3	2	40	0	11111.jpg	4	4	1	1	1	0	121451	3	3	2	41	0	00011.jpg	3	1	1	0	0	-100	130341	3	3	2	42	0	11000.jpg	1	1	0	0	1	0	43551	3	3	2	43	0	10000.jpg	1	1	0	0	1	100	27491	3	3	2	44	0	11111.jpg	4	4	1	1	1	200	26731	3	3	2	45	0	10010.jpg	1	1	0	0	1	300	43731	3	3	2	46	0	01110.jpg	2	2	0	1	1	400	127591	3	3	2	47	0	00110.jpg	1	2	0	0	0	300	22101	3	3	2	48	0	11001.jpg	2	1	0	1	0	200	122421	3	3	2	49	0	00001.jpg	1	1	0	0	1	300	33761	3	3	2	50	0	11001.jpg	2	2	0	1	1	400	24741	3	3	2	51	0	10111.jpg	4	4	1	1	1	500	54561	3	3	2	52	0	01001.jpg	1	1	0	0	1	600	25671	3	3	2	53	0	00100.jpg	1	2	0	0	0	500	33291	3	3	2	54	0	11110.jpg	2	2	0	1	1	600	48351	3	3	2	55	0	11000.jpg	1	1	0	0	1	700	48741	3	3	2	56	0	11110.jpg	2	2	0	1	1	800	22651	3	3	2	57	0	00010.jpg	1	1	0	0	1	900	32471	3	3	2	58	0	11100.jpg	2	2	0	1	1	1000	24371	3	3	2	59	0	11101.jpg	2	4	0	1	0	900	81421	3	3	2	60	0	10001.jpg	1	1	0	0	1	1000	55441	3	3	2	61	0	01000.jpg	1	1	0	0	1	1100	23721	3	3	2	62	0	10101.jpg	2	2	0	1	1	1200	36531	3	3	2	63	0	11000.jpg	1	1	0	0	1	1300	18431	3	3	2	64	0	11011.jpg	4	3	1	1	0	1200	105341	3	3	3	65	0	01011.jpg	3	2	1	0	0	1100	55041	3	3	3	66	0	10111.jpg	4	4	1	1	1	1200	32771	3	3	3	67	0	10001.jpg	1	2	0	0	0	1100	35301	3	3	3	68	0	00100.jpg	1	2	0	0	0	1000	119981	3	3	3	69	0	10101.jpg	2	3	0	1	0	900	146051	3	3	3	70	0	01000.jpg	1	1	0	0	1	1000	21021	3	3	3	71	0	10111.jpg	4	4	1	1	1	1100	40511	3	3	3	72	0	10110.jpg	2	2	0	1	1	1200	23841	3	3	3	73	0	01100.jpg	2	1	0	1	0	1100	54751	3	3	3	74	0	11010.jpg	2	1	0	1	0	1000	30801	3	3	3	75	0	10000.jpg	1	1	0	0	1	1100	77101	3	3	3	76	0	01100.jpg	2	2	0	1	1	1200	19221	3	3	3	77	0	00000.jpg	1	1	0	0	1	1300	17901	3	3	3	78	0	11101.jpg	2	2	0	1	1	1400	100551	3	3	3	79	0	01001.jpg	1	1	0	0	1	1500	31741	3	3	3	80	0	00111.jpg	3	2	1	0	0	1400	60471	3	3	3	81	0	10100.jpg	1	2	0	0	0	1300	74791	3	3	3	82	0	11110.jpg	2	2	0	1	1	1400	31311	3	3	3	83	0	01010.jpg	1	1	0	0	1	1500	37341	3	3	3	84	0	11010.jpg	2	1	0	1	0	1400	41391	3	3	3	85	0	10011.jpg	3	3	1	0	1	1500	172701	3	3	3	86	0	01001.jpg	1	1	0	0	1	1600	20361	3	3	3	87	0	11010.jpg	2	2	0	1	1	1700	56771	3	3	3	88	0	11011.jpg	4	3	1	1	0	1600	39371	3	3	3	89	0	10001.jpg	1	1	0	0	1	1700	130671	3	3	3	90	0	00110.jpg	1	2	0	0	0	1600	26511	3	3	3	91	0	10011.jpg	3	3	1	0	1	1700	60721	3	3	3	92	0	00111.jpg	3	2	1	0	0	1600	48401	3	3	3	93	0	11100.jpg	2	2	0	1	1	1700	37491	3	3	3	94	0	11011.jpg	4	3	1	1	0	1600	32961	3	3	3	95	0	01100.jpg	2	2	0	1	1	1700	45391	3	3	3	96	0	00101.jpg	1	2	0	0	0	1600	89341	3	3	0	97	1	11110pt.jpg	1	2	0	0	1	1600	89341	3	3	0	98	1	00101pt.jpg	1	2	0	0	1	1600	89341	3	3	0	99	1	11111pt.jpg	1	2	0	0	1	1600	89341	3	3	0	100	1	01010pt.jpg	1	2	0	0	1	1600	89341	3	3	0	101	1	00111pt.jpg	1	2	0	0	1	1600	89341	3	3	0	102	1	10101pt.jpg	1	2	0	0	0	1600	89341	3	3	0	103	1	01000pt.jpg	1	2	0	0	1	1600	89341	3	3	0	104	1	11011pt.jpg	1	2	0	0	0	1600	89341	4	1	1	1	0	01111.jpg	2	3	0	1	0	-100	484061	4	1	1	2	0	00101.jpg	1	4	0	0	0	-200	198291	4	1	1	3	0	11011.jpg	2	3	0	1	0	-300	359101	4	1	1	4	0	01000.jpg	1	2	0	0	0	-400	682721	4	1	1	5	0	01101.jpg	1	2	0	0	0	-500	267491	4	1	1	6	0	10100.jpg	3	4	1	0	0	-600	161911	4	1	1	7	0	00001.jpg	1	1	0	0	1	-500	625681	4	1	1	8	0	01011.jpg	2	2	0	1	1	-400	256591	4	1	1	9	0	00000.jpg	1	1	0	0	1	-300	83361	4	1	1	10	0	01100.jpg	1	1	0	0	1	-200	338671	4	1	1	11	0	11101.jpg	3	3	1	0	1	-100	127141	4	1	1	12	0	01000.jpg	1	1	0	0	1	0	118701	4	1	1	13	0	00011.jpg	2	2	0	1	1	100	59951	4	1	1	14	0	11001.jpg	1	3	0	0	0	0	53411	4	1	1	15	0	00100.jpg	1	1	0	0	1	100	248551	4	1	1	16	0	01110.jpg	2	2	0	1	1	200	75821	4	1	1	17	0	11110.jpg	4	4	1	1	1	300	53831	4	1	1	18	0	00111.jpg	2	2	0	1	1	400	38481	4	1	1	19	0	01000.jpg	1	1	0	0	1	500	37341	4	1	1	20	0	00010.jpg	2	2	0	1	1	600	55771	4	1	1	21	0	10100.jpg	3	3	1	0	1	700	72171	4	1	1	22	0	00010.jpg	2	2	0	1	1	800	25381	4	1	1	23	0	00001.jpg	1	1	0	0	1	900	60371	4	1	1	24	0	11111.jpg	4	4	1	1	1	1000	31801	4	1	1	25	0	11010.jpg	2	4	0	1	0	900	56851	4	1	1	26	0	10001.jpg	1	3	0	0	0	800	299071	4	1	1	27	0	00100.jpg	1	1	0	0	1	900	78141	4	1	1	28	0	10111.jpg	4	2	1	1	0	800	442941	4	1	1	29	0	00110.jpg	2	2	0	1	1	900	102191	4	1	1	30	0	10110.jpg	4	2	1	1	0	800	124831	4	1	1	31	0	11011.jpg	2	4	0	1	0	700	155251	4	1	1	32	0	01010.jpg	2	2	0	1	1	800	153531	4	1	2	33	0	00001.jpg	1	1	0	0	1	900	30511	4	1	2	34	0	10101.jpg	3	3	1	0	1	1000	58011	4	1	2	35	0	01001.jpg	1	1	0	0	1	1100	24591	4	1	2	36	0	00110.jpg	2	2	0	1	1	1200	31451	4	1	2	37	0	00100.jpg	1	1	0	0	1	1300	19721	4	1	2	38	0	10000.jpg	1	3	0	0	0	1200	32791	4	1	2	39	0	01001.jpg	1	1	0	0	1	1300	136021	4	1	2	40	0	00101.jpg	1	1	0	0	1	1400	31561	4	1	2	41	0	10110.jpg	4	4	1	1	1	1500	191111	4	1	2	42	0	00010.jpg	2	2	0	1	1	1600	26341	4	1	2	43	0	00000.jpg	1	1	0	0	1	1700	16491	4	1	2	44	0	01111.jpg	2	2	0	1	1	1800	24961	4	1	2	45	0	11111.jpg	4	4	1	1	1	1900	37091	4	1	2	46	0	10000.jpg	1	1	0	0	1	2000	103441	4	1	2	47	0	00111.jpg	2	2	0	1	1	2100	48851	4	1	2	48	0	01101.jpg	1	1	0	0	1	2200	21131	4	1	2	49	0	00011.jpg	2	2	0	1	1	2300	17181	4	1	2	50	0	01011.jpg	2	2	0	1	1	2400	18421	4	1	2	51	0	11101.jpg	3	1	1	0	0	2300	58241	4	1	2	52	0	01111.jpg	2	2	0	1	1	2400	65681	4	1	2	53	0	10101.jpg	3	3	1	0	1	2500	47061	4	1	2	54	0	00011.jpg	2	2	0	1	1	2600	16151	4	1	2	55	0	10100.jpg	3	1	1	0	0	2500	50631	4	1	2	56	0	00101.jpg	1	1	0	0	1	2600	28131	4	1	2	57	0	10101.jpg	3	3	1	0	1	2700	26541	4	1	2	58	0	11001.jpg	1	1	0	0	1	2800	45971	4	1	2	59	0	10110.jpg	4	4	1	1	1	2900	31981	4	1	2	60	0	01110.jpg	2	2	0	1	1	3000	30541	4	1	2	61	0	10000.jpg	1	1	0	0	1	3100	28841	4	1	2	62	0	11000.jpg	1	1	0	0	1	3200	22261	4	1	2	63	0	10111.jpg	4	4	1	1	1	3300	36981	4	1	2	64	0	11100.jpg	3	3	1	0	1	3400	36451	4	1	3	65	0	11110.jpg	4	4	1	1	1	3500	17501	4	1	3	66	0	10001.jpg	1	1	0	0	1	3600	43981	4	1	3	67	0	11110.jpg	4	4	1	1	1	3700	15121	4	1	3	68	0	11000.jpg	1	1	0	0	1	3800	22681	4	1	3	69	0	10011.jpg	2	2	0	1	1	3900	22891	4	1	3	70	0	10011.jpg	2	2	0	1	1	4000	18871	4	1	3	71	0	11010.jpg	2	2	0	1	1	4100	17961	4	1	3	72	0	11001.jpg	1	1	0	0	1	4200	39711	4	1	3	73	0	10010.jpg	2	2	0	1	1	4300	22541	4	1	3	74	0	00000.jpg	1	1	0	0	1	4400	21251	4	1	3	75	0	00111.jpg	2	2	0	1	1	4500	19121	4	1	3	76	0	10111.jpg	4	4	1	1	1	4600	37731	4	1	3	77	0	01100.jpg	1	1	0	0	1	4700	18771	4	1	3	78	0	10011.jpg	2	2	0	1	1	4800	15701	4	1	3	79	0	11100.jpg	3	3	1	0	1	4900	42211	4	1	3	80	0	10010.jpg	2	2	0	1	1	5000	21651	4	1	3	81	0	11111.jpg	4	4	1	1	1	5100	15031	4	1	3	82	0	01010.jpg	2	2	0	1	1	5200	15791	4	1	3	83	0	01101.jpg	1	1	0	0	1	5300	29001	4	1	3	84	0	10010.jpg	2	2	0	1	1	5400	20641	4	1	3	85	0	01100.jpg	1	1	0	0	1	5500	14381	4	1	3	86	0	11010.jpg	2	2	0	1	1	5600	22291	4	1	3	87	0	01010.jpg	2	2	0	1	1	5700	22531	4	1	3	88	0	00110.jpg	2	2	0	1	1	5800	19471	4	1	3	89	0	11100.jpg	3	3	1	0	1	5900	36551	4	1	3	90	0	10001.jpg	1	1	0	0	1	6000	28061	4	1	3	91	0	11011.jpg	2	2	0	1	1	6100	15741	4	1	3	92	0	01110.jpg	2	2	0	1	1	6200	16541	4	1	3	93	0	01011.jpg	2	2	0	1	1	6300	14941	4	1	3	94	0	01001.jpg	1	1	0	0	1	6400	38501	4	1	3	95	0	11101.jpg	3	2	1	0	0	6300	33941	4	1	3	96	0	11000.jpg	1	1	0	0	1	6400	51131	4	1	0	97	1	11011pt.jpg	1	3	0	0	0	6400	348621	4	1	0	98	1	11110pt.jpg	1	4	0	0	1	6400	211611	4	1	0	99	1	01010pt.jpg	1	2	0	0	1	6400	145841	4	1	0	100	1	00111pt.jpg	1	2	0	0	1	6400	55191	4	1	0	101	1	00101pt.jpg	1	1	0	0	1	6400	134161	4	1	0	102	1	10101pt.jpg	1	3	0	0	1	6400	122781	4	1	0	103	1	11111pt.jpg	1	4	0	0	1	6400	81761	4	1	0	104	1	01000pt.jpg	1	1	0	0	1	6400	88631	4	2	1	1	0	10011.jpg	3	1	1	0	0	-100	571591	4	2	1	2	0	10110.jpg	4	3	1	1	0	-200	123631	4	2	1	3	0	10101.jpg	2	3	0	1	0	-300	167631	4	2	1	4	0	00001.jpg	1	1	0	0	1	-200	288371	4	2	1	5	0	11101.jpg	2	2	0	1	1	-100	218681	4	2	1	6	0	01000.jpg	1	1	0	0	1	0	34021	4	2	1	7	0	01001.jpg	1	1	0	0	1	100	13871	4	2	1	8	0	10110.jpg	4	4	1	1	1	200	124051	4	2	1	9	0	10011.jpg	3	3	1	0	1	300	58921	4	2	1	10	0	10001.jpg	1	1	0	0	1	400	122721	4	2	1	11	0	11110.jpg	4	4	1	1	1	500	33911	4	2	1	12	0	10001.jpg	1	1	0	0	1	600	38141	4	2	1	13	0	10100.jpg	2	2	0	1	1	700	50001	4	2	1	14	0	10001.jpg	1	1	0	0	1	800	20001	4	2	1	15	0	01000.jpg	1	1	0	0	1	900	30171	4	2	1	16	0	11111.jpg	4	4	1	1	1	1000	23291	4	2	1	17	0	01100.jpg	2	2	0	1	1	1100	23321	4	2	1	18	0	11011.jpg	4	3	1	1	0	1000	27671	4	2	1	19	0	01110.jpg	4	3	1	1	0	900	198871	4	2	1	20	0	11000.jpg	2	1	0	1	0	800	24901	4	2	1	21	0	11111.jpg	4	4	1	1	1	900	73511	4	2	1	22	0	00100.jpg	1	2	0	0	0	800	59441	4	2	1	23	0	00000.jpg	1	1	0	0	1	900	26671	4	2	1	24	0	11110.jpg	4	4	1	1	1	1000	85921	4	2	1	25	0	11010.jpg	4	4	1	1	1	1100	306251	4	2	1	26	0	01101.jpg	2	2	0	1	1	1200	95671	4	2	1	27	0	11010.jpg	4	3	1	1	0	1100	214011	4	2	1	28	0	00101.jpg	1	2	0	0	0	1000	32951	4	2	1	29	0	11000.jpg	2	1	0	1	0	900	94201	4	2	1	30	0	01101.jpg	2	2	0	1	1	1000	42041	4	2	1	31	0	11011.jpg	4	4	1	1	1	1100	171411	4	2	1	32	0	00011.jpg	3	2	1	0	0	1000	257831	4	2	2	33	0	11000.jpg	2	2	0	1	1	1100	146241	4	2	2	34	0	00110.jpg	3	3	1	0	1	1200	132001	4	2	2	35	0	00010.jpg	3	3	1	0	1	1300	46001	4	2	2	36	0	00110.jpg	3	3	1	0	1	1400	36271	4	2	2	37	0	00100.jpg	1	1	0	0	1	1500	104731	4	2	2	38	0	10000.jpg	1	2	0	0	0	1400	28471	4	2	2	39	0	00010.jpg	3	3	1	0	1	1500	200061	4	2	2	40	0	00110.jpg	3	3	1	0	1	1600	73671	4	2	2	41	0	10101.jpg	2	2	0	1	1	1700	73211	4	2	2	42	0	01111.jpg	4	3	1	1	0	1600	28941	4	2	2	43	0	11101.jpg	2	2	0	1	1	1700	102241	4	2	2	44	0	10011.jpg	3	4	1	0	0	1600	123441	4	2	2	45	0	01110.jpg	4	3	1	1	0	1500	18511	4	2	2	46	0	00001.jpg	1	1	0	0	1	1600	170561	4	2	2	47	0	10111.jpg	4	4	1	1	1	1700	99831	4	2	2	48	0	01001.jpg	1	1	0	0	1	1800	28791	4	2	2	49	0	11010.jpg	4	3	1	1	0	1700	37411	4	2	2	50	0	10101.jpg	2	2	0	1	1	1800	55261	4	2	2	51	0	11100.jpg	2	2	0	1	1	1900	50021	4	2	2	52	0	01100.jpg	2	1	0	1	0	1800	25861	4	2	2	53	0	10100.jpg	2	2	0	1	1	1900	25231	4	2	2	54	0	00101.jpg	1	2	0	0	0	1800	43351	4	2	2	55	0	00001.jpg	1	1	0	0	1	1900	36181	4	2	2	56	0	00101.jpg	1	1	0	0	1	2000	41541	4	2	2	57	0	01010.jpg	3	4	1	0	0	1900	191731	4	2	2	58	0	10010.jpg	3	4	1	0	0	1800	35021	4	2	2	59	0	10010.jpg	3	3	1	0	1	1900	32661	4	2	2	60	0	01110.jpg	4	3	1	1	0	1800	101521	4	2	2	61	0	00010.jpg	3	2	1	0	0	1700	405301	4	2	2	62	0	11001.jpg	2	1	0	1	0	1600	311081	4	2	2	63	0	00111.jpg	3	2	1	0	0	1500	145601	4	2	2	64	0	00100.jpg	1	1	0	0	1	1600	201301	4	2	3	65	0	10100.jpg	2	2	0	1	1	1700	225891	4	2	3	66	0	10110.jpg	4	4	1	1	1	1800	46861	4	2	3	67	0	10000.jpg	1	2	0	0	0	1700	147791	4	2	3	68	0	00011.jpg	3	3	1	0	1	1800	285641	4	2	3	69	0	11110.jpg	4	4	1	1	1	1900	20631	4	2	3	70	0	10111.jpg	4	4	1	1	1	2000	58921	4	2	3	71	0	00111.jpg	3	3	1	0	1	2100	42311	4	2	3	72	0	11011.jpg	4	3	1	1	0	2000	86961	4	2	3	73	0	01010.jpg	3	3	1	0	1	2100	199471	4	2	3	74	0	01001.jpg	1	1	0	0	1	2200	22691	4	2	3	75	0	00000.jpg	1	1	0	0	1	2300	24041	4	2	3	76	0	01010.jpg	3	3	1	0	1	2400	45961	4	2	3	77	0	11001.jpg	2	1	0	1	0	2300	194231	4	2	3	78	0	10000.jpg	1	2	0	0	0	2200	81801	4	2	3	79	0	01100.jpg	2	2	0	1	1	2300	332061	4	2	3	80	0	11100.jpg	2	2	0	1	1	2400	213431	4	2	3	81	0	01000.jpg	1	1	0	0	1	2500	28891	4	2	3	82	0	11100.jpg	2	2	0	1	1	2600	30941	4	2	3	83	0	00000.jpg	1	1	0	0	1	2700	15631	4	2	3	84	0	01111.jpg	4	4	1	1	1	2800	49801	4	2	3	85	0	00011.jpg	3	3	1	0	1	2900	35791	4	2	3	86	0	11111.jpg	4	4	1	1	1	3000	18121	4	2	3	87	0	11001.jpg	2	1	0	1	0	2900	61391	4	2	3	88	0	01011.jpg	3	3	1	0	1	3000	32071	4	2	3	89	0	01101.jpg	2	2	0	1	1	3100	66721	4	2	3	90	0	10111.jpg	4	4	1	1	1	3200	14861	4	2	3	91	0	01111.jpg	4	3	1	1	0	3100	45701	4	2	3	92	0	01011.jpg	3	3	1	0	1	3200	23381	4	2	3	93	0	00111.jpg	3	4	1	0	0	3100	27011	4	2	3	94	0	01011.jpg	3	3	1	0	1	3200	47381	4	2	3	95	0	10010.jpg	3	3	1	0	1	3300	27341	4	2	3	96	0	11101.jpg	2	2	0	1	1	3400	54581	4	2	0	97	1	10101pt.jpg	2	2	0	1	0	3400	54581	4	2	0	98	1	11011pt.jpg	2	2	0	1	0	3400	54581	4	2	0	99	1	11111pt.jpg	2	2	0	1	1	3400	54581	4	2	0	100	1	00111pt.jpg	2	2	0	1	1	3400	54581	4	2	0	101	1	01000pt.jpg	2	2	0	1	1	3400	54581	4	2	0	102	1	01010pt.jpg	2	2	0	1	1	3400	54581	4	2	0	103	1	11110pt.jpg	2	2	0	1	1	3400	54581	4	2	0	104	1	00101pt.jpg	2	2	0	1	1	3400	54581	4	3	1	1	0	11000.jpg	1	3	0	0	0	-100	217911	4	3	1	2	0	10110.jpg	2	4	0	1	0	-200	65681	4	3	1	3	0	10101.jpg	2	2	0	1	1	-100	491301	4	3	1	4	0	01111.jpg	4	2	1	1	0	-200	255181	4	3	1	5	0	01010.jpg	1	4	0	0	0	-300	75671	4	3	1	6	0	01100.jpg	2	3	0	1	0	-400	282091	4	3	1	7	0	01100.jpg	2	2	0	1	1	-300	18391	4	3	1	8	0	11010.jpg	2	1	0	1	0	-400	210781	4	3	1	9	0	10000.jpg	1	2	0	0	0	-500	43151	4	3	1	10	0	01101.jpg	2	2	0	1	1	-400	233851	4	3	1	11	0	11110.jpg	2	1	0	1	0	-500	62971	4	3	1	12	0	11011.jpg	4	2	1	1	0	-600	194231	4	3	1	13	0	01000.jpg	1	1	0	0	1	-500	215951	4	3	1	14	0	00101.jpg	1	2	0	0	0	-600	147971	4	3	1	15	0	10001.jpg	1	3	0	0	0	-700	283981	4	3	1	16	0	00010.jpg	1	2	0	0	0	-800	192211	4	3	1	17	0	10010.jpg	1	2	0	0	0	-900	100691	4	3	1	18	0	00000.jpg	1	1	0	0	1	-800	28741	4	3	1	19	0	11110.jpg	2	2	0	1	1	-700	124561	4	3	1	20	0	01111.jpg	4	1	1	1	0	-800	188941	4	3	1	21	0	11100.jpg	2	3	0	1	0	-900	302411	4	3	1	22	0	00011.jpg	3	1	1	0	0	-1000	45281	4	3	1	23	0	01001.jpg	1	1	0	0	1	-900	27081	4	3	1	24	0	11101.jpg	2	2	0	1	1	-800	131041	4	3	1	25	0	01000.jpg	1	1	0	0	1	-700	17411	4	3	1	26	0	11011.jpg	4	4	1	1	1	-600	305271	4	3	1	27	0	00001.jpg	1	1	0	0	1	-500	31231	4	3	1	28	0	01011.jpg	3	3	1	0	1	-400	73741	4	3	1	29	0	11110.jpg	2	2	0	1	1	-300	124961	4	3	1	30	0	00100.jpg	1	1	0	0	1	-200	32381	4	3	1	31	0	10000.jpg	1	1	0	0	1	-100	20611	4	3	1	32	0	11010.jpg	2	4	0	1	0	-200	111561	4	3	2	33	0	10110.jpg	2	2	0	1	1	-100	84371	4	3	2	34	0	00111.jpg	3	4	1	0	0	-200	102521	4	3	2	35	0	11101.jpg	2	2	0	1	1	-100	36681	4	3	2	36	0	10011.jpg	3	4	1	0	0	-200	395531	4	3	2	37	0	00000.jpg	1	1	0	0	1	-100	17151	4	3	2	38	0	00101.jpg	1	1	0	0	1	0	16481	4	3	2	39	0	10111.jpg	4	2	1	1	0	-100	21431	4	3	2	40	0	10100.jpg	1	2	0	0	0	-200	131281	4	3	2	41	0	11111.jpg	4	3	1	1	0	-300	166841	4	3	2	42	0	01101.jpg	2	1	0	1	0	-400	19911	4	3	2	43	0	10111.jpg	4	2	1	1	0	-500	247441	4	3	2	44	0	00010.jpg	1	2	0	0	0	-600	326331	4	3	2	45	0	10010.jpg	1	3	0	0	0	-700	260731	4	3	2	46	0	01101.jpg	2	2	0	1	1	-600	190131	4	3	2	47	0	00010.jpg	1	1	0	0	1	-500	283411	4	3	2	48	0	01010.jpg	1	1	0	0	1	-400	11841	4	3	2	49	0	00011.jpg	3	1	1	0	0	-500	20811	4	3	2	50	0	10011.jpg	3	4	1	0	0	-600	246861	4	3	2	51	0	00100.jpg	1	2	0	0	0	-700	115241	4	3	2	52	0	00011.jpg	3	3	1	0	1	-600	41821	4	3	2	53	0	10010.jpg	1	1	0	0	1	-500	32171	4	3	2	54	0	00101.jpg	1	3	0	0	0	-600	226881	4	3	2	55	0	10000.jpg	1	1	0	0	1	-500	201821	4	3	2	56	0	01011.jpg	3	3	1	0	1	-400	21501	4	3	2	57	0	01001.jpg	1	1	0	0	1	-300	130091	4	3	2	58	0	11101.jpg	2	3	0	1	0	-400	97851	4	3	2	59	0	00111.jpg	3	4	1	0	0	-500	322261	4	3	2	60	0	00001.jpg	1	1	0	0	1	-400	20101	4	3	2	61	0	01001.jpg	1	1	0	0	1	-300	11461	4	3	2	62	0	00111.jpg	3	3	1	0	1	-200	25001	4	3	2	63	0	11001.jpg	2	2	0	1	1	-100	97751	4	3	2	64	0	10101.jpg	2	2	0	1	1	0	159251	4	3	3	65	0	10100.jpg	1	2	0	0	0	-100	66971	4	3	3	66	0	11001.jpg	2	2	0	1	1	0	219101	4	3	3	67	0	01111.jpg	4	3	1	1	0	-100	18891	4	3	3	68	0	00110.jpg	1	1	0	0	1	0	59891	4	3	3	69	0	10110.jpg	2	3	0	1	0	-100	638461	4	3	3	70	0	10001.jpg	1	2	0	0	0	-200	96131	4	3	3	71	0	01011.jpg	3	3	1	0	1	-100	225081	4	3	3	72	0	11100.jpg	2	4	0	1	0	-200	116331	4	3	3	73	0	11000.jpg	1	2	0	0	0	-300	108321	4	3	3	74	0	10011.jpg	3	3	1	0	1	-200	253681	4	3	3	75	0	01110.jpg	2	2	0	1	1	-100	181221	4	3	3	76	0	00110.jpg	1	2	0	0	0	-200	14051	4	3	3	77	0	01010.jpg	1	2	0	0	0	-300	57831	4	3	3	78	0	01110.jpg	2	1	0	1	0	-400	44301	4	3	3	79	0	00100.jpg	1	1	0	0	1	-300	182771	4	3	3	80	0	00110.jpg	1	1	0	0	1	-200	104041	4	3	3	81	0	11011.jpg	4	2	1	1	0	-300	246041	4	3	3	82	0	11000.jpg	1	1	0	0	1	-200	251941	4	3	3	83	0	10111.jpg	4	4	1	1	1	-100	255091	4	3	3	84	0	10001.jpg	1	1	0	0	1	0	29191	4	3	3	85	0	11010.jpg	2	2	0	1	1	100	178591	4	3	3	86	0	00001.jpg	1	1	0	0	1	200	19061	4	3	3	87	0	11111.jpg	4	4	1	1	1	300	33981	4	3	3	88	0	10100.jpg	1	2	0	0	0	200	264301	4	3	3	89	0	00000.jpg	1	1	0	0	1	300	18531	4	3	3	90	0	10101.jpg	2	1	0	1	0	200	82761	4	3	3	91	0	01100.jpg	2	1	0	1	0	100	24811	4	3	3	92	0	01110.jpg	2	2	0	1	1	200	160541	4	3	3	93	0	01000.jpg	1	1	0	0	1	300	17891	4	3	3	94	0	11001.jpg	2	1	0	1	0	200	25421	4	3	3	95	0	11100.jpg	2	1	0	1	0	100	230961	4	3	3	96	0	11111.jpg	4	4	1	1	1	200	44621	4	3	0	97	1	11111pt.jpg	4	4	1	1	1	200	44621	4	3	0	98	1	00111pt.jpg	4	4	1	1	1	200	44621	4	3	0	99	1	10101pt.jpg	4	4	1	1	0	200	44621	4	3	0	100	1	00101pt.jpg	4	4	1	1	0	200	44621	4	3	0	101	1	01000pt.jpg	4	4	1	1	1	200	44621	4	3	0	102	1	01010pt.jpg	4	4	1	1	1	200	44621	4	3	0	103	1	11110pt.jpg	4	4	1	1	1	200	44621	4	3	0	104	1	11011pt.jpg	4	4	1	1	0	200	44621	5	1	1	1	0	10101.jpg	3	4	1	0	0	-100	201111	5	1	1	2	0	10000.jpg	1	4	0	0	0	-200	108411	5	1	1	3	0	10100.jpg	3	3	1	0	1	-100	64071	5	1	1	4	0	10000.jpg	1	3	0	0	0	-200	121691	5	1	1	5	0	11111.jpg	4	2	1	1	0	-300	231221	5	1	1	6	0	11101.jpg	3	3	1	0	1	-200	335391	5	1	1	7	0	11101.jpg	3	3	1	0	1	-100	87101	5	1	1	8	0	10101.jpg	3	4	1	0	0	-200	128591	5	1	1	9	0	01100.jpg	1	1	0	0	1	-100	55701	5	1	1	10	0	11000.jpg	1	1	0	0	1	0	247231	5	1	1	11	0	01111.jpg	2	2	0	1	1	100	71671	5	1	1	12	0	10010.jpg	2	2	0	1	1	200	165771	5	1	1	13	0	11010.jpg	2	2	0	1	1	300	67471	5	1	1	14	0	10100.jpg	3	2	1	0	0	200	283561	5	1	1	15	0	01011.jpg	2	2	0	1	1	300	45831	5	1	1	16	0	00011.jpg	2	2	0	1	1	400	26561	5	1	1	17	0	00011.jpg	2	2	0	1	1	500	17681	5	1	1	18	0	00001.jpg	1	2	0	0	0	400	28891	5	1	1	19	0	11000.jpg	1	1	0	0	1	500	142701	5	1	1	20	0	10010.jpg	2	2	0	1	1	600	72911	5	1	1	21	0	01100.jpg	1	1	0	0	1	700	87831	5	1	1	22	0	01010.jpg	2	2	0	1	1	800	35461	5	1	1	23	0	01101.jpg	1	1	0	0	1	900	34111	5	1	1	24	0	11011.jpg	2	2	0	1	1	1000	231481	5	1	1	25	0	11110.jpg	4	4	1	1	1	1100	116861	5	1	1	26	0	11000.jpg	1	1	0	0	1	1200	94021	5	1	1	27	0	00100.jpg	1	1	0	0	1	1300	40111	5	1	1	28	0	00110.jpg	2	2	0	1	1	1400	22511	5	1	1	29	0	11100.jpg	3	3	1	0	1	1500	91621	5	1	1	30	0	01000.jpg	1	1	0	0	1	1600	18771	5	1	1	31	0	10100.jpg	3	3	1	0	1	1700	113551	5	1	1	32	0	00110.jpg	2	2	0	1	1	1800	345651	5	1	2	33	0	00100.jpg	1	1	0	0	1	1900	42071	5	1	2	34	0	00111.jpg	2	2	0	1	1	2000	64811	5	1	2	35	0	11010.jpg	2	2	0	1	1	2100	43731	5	1	2	36	0	01001.jpg	1	1	0	0	1	2200	26631	5	1	2	37	0	01111.jpg	2	2	0	1	1	2300	29891	5	1	2	38	0	11110.jpg	4	4	1	1	1	2400	42941	5	1	2	39	0	10111.jpg	4	4	1	1	1	2500	101861	5	1	2	40	0	10011.jpg	2	2	0	1	1	2600	120831	5	1	2	41	0	10011.jpg	2	2	0	1	1	2700	18871	5	1	2	42	0	10111.jpg	4	4	1	1	1	2800	36291	5	1	2	43	0	01010.jpg	2	2	0	1	1	2900	23471	5	1	2	44	0	00000.jpg	1	1	0	0	1	3000	32871	5	1	2	45	0	11001.jpg	1	1	0	0	1	3100	25151	5	1	2	46	0	01110.jpg	2	2	0	1	1	3200	87521	5	1	2	47	0	00001.jpg	1	1	0	0	1	3300	28411	5	1	2	48	0	11111.jpg	4	4	1	1	1	3400	42491	5	1	2	49	0	00001.jpg	1	1	0	0	1	3500	17591	5	1	2	50	0	01110.jpg	2	2	0	1	1	3600	25931	5	1	2	51	0	00111.jpg	2	2	0	1	1	3700	21941	5	1	2	52	0	01110.jpg	2	2	0	1	1	3800	20341	5	1	2	53	0	11010.jpg	2	2	0	1	1	3900	26661	5	1	2	54	0	10000.jpg	1	1	0	0	1	4000	18641	5	1	2	55	0	10001.jpg	1	1	0	0	1	4100	18071	5	1	2	56	0	00010.jpg	2	2	0	1	1	4200	15191	5	1	2	57	0	00101.jpg	1	1	0	0	1	4300	50831	5	1	2	58	0	11001.jpg	1	1	0	0	1	4400	29911	5	1	2	59	0	01011.jpg	2	2	0	1	1	4500	29061	5	1	2	60	0	11111.jpg	4	4	1	1	1	4600	49911	5	1	2	61	0	00110.jpg	2	2	0	1	1	4700	19101	5	1	2	62	0	11101.jpg	3	3	1	0	1	4800	45461	5	1	2	63	0	01100.jpg	1	1	0	0	1	4900	32391	5	1	2	64	0	10110.jpg	4	4	1	1	1	5000	25171	5	1	3	65	0	10011.jpg	2	2	0	1	1	5100	51591	5	1	3	66	0	01001.jpg	1	1	0	0	1	5200	26421	5	1	3	67	0	00100.jpg	1	1	0	0	1	5300	26961	5	1	3	68	0	01010.jpg	2	2	0	1	1	5400	18621	5	1	3	69	0	00000.jpg	1	1	0	0	1	5500	16041	5	1	3	70	0	10001.jpg	1	1	0	0	1	5600	19321	5	1	3	71	0	11011.jpg	2	2	0	1	1	5700	29451	5	1	3	72	0	10101.jpg	3	3	1	0	1	5800	51381	5	1	3	73	0	11110.jpg	4	4	1	1	1	5900	32391	5	1	3	74	0	11100.jpg	3	3	1	0	1	6000	22951	5	1	3	75	0	10111.jpg	4	4	1	1	1	6100	41221	5	1	3	76	0	01101.jpg	1	1	0	0	1	6200	21571	5	1	3	77	0	00000.jpg	1	1	0	0	1	6300	18231	5	1	3	78	0	00101.jpg	1	1	0	0	1	6400	19521	5	1	3	79	0	10010.jpg	2	2	0	1	1	6500	30511	5	1	3	80	0	11011.jpg	2	2	0	1	1	6600	17211	5	1	3	81	0	01101.jpg	1	1	0	0	1	6700	33491	5	1	3	82	0	01001.jpg	1	1	0	0	1	6800	28791	5	1	3	83	0	01000.jpg	1	1	0	0	1	6900	13171	5	1	3	84	0	01111.jpg	2	2	0	1	1	7000	55621	5	1	3	85	0	01000.jpg	1	1	0	0	1	7100	20271	5	1	3	86	0	11001.jpg	1	1	0	0	1	7200	56671	5	1	3	87	0	10001.jpg	1	1	0	0	1	7300	18571	5	1	3	88	0	00010.jpg	2	2	0	1	1	7400	21531	5	1	3	89	0	00101.jpg	1	1	0	0	1	7500	53701	5	1	3	90	0	10110.jpg	4	4	1	1	1	7600	34451	5	1	3	91	0	00011.jpg	2	2	0	1	1	7700	20511	5	1	3	92	0	11100.jpg	3	3	1	0	1	7800	35771	5	1	3	93	0	00010.jpg	2	2	0	1	1	7900	21481	5	1	3	94	0	00111.jpg	2	2	0	1	1	8000	40931	5	1	3	95	0	01011.jpg	2	2	0	1	1	8100	15941	5	1	3	96	0	10110.jpg	4	4	1	1	1	8200	21961	5	1	0	97	1	11011pt.jpg	4	1	1	1	0	8200	140471	5	1	0	98	1	10101pt.jpg	4	4	1	1	0	8200	218111	5	1	0	99	1	11111pt.jpg	4	3	1	1	0	8200	167121	5	1	0	100	1	00101pt.jpg	4	2	1	1	0	8200	88501	5	1	0	101	1	01010pt.jpg	4	2	1	1	1	8200	53491	5	1	0	102	1	00111pt.jpg	4	1	1	1	0	8200	265651	5	1	0	103	1	11110pt.jpg	4	4	1	1	1	8200	119881	5	1	0	104	1	01000pt.jpg	4	2	1	1	0	8200	51791	5	2	1	1	0	10110.jpg	4	2	1	1	0	-100	601621	5	2	1	2	0	11011.jpg	4	2	1	1	0	-200	51351	5	2	1	3	0	00111.jpg	3	2	1	0	0	-300	106261	5	2	1	4	0	10111.jpg	4	4	1	1	1	-200	119771	5	2	1	5	0	01110.jpg	4	2	1	1	0	-300	130181	5	2	1	6	0	10010.jpg	3	3	1	0	1	-200	44871	5	2	1	7	0	00101.jpg	1	2	0	0	0	-300	28131	5	2	1	8	0	00001.jpg	1	1	0	0	1	-200	43001	5	2	1	9	0	11110.jpg	4	4	1	1	1	-100	140731	5	2	1	10	0	00000.jpg	1	2	0	0	0	-200	52211	5	2	1	11	0	00010.jpg	3	3	1	0	1	-100	181251	5	2	1	12	0	01010.jpg	3	3	1	0	1	0	209291	5	2	1	13	0	01101.jpg	2	1	0	1	0	-100	239821	5	2	1	14	0	01100.jpg	2	2	0	1	1	0	105421	5	2	1	15	0	11111.jpg	4	4	1	1	1	100	42571	5	2	1	16	0	01010.jpg	3	3	1	0	1	200	64061	5	2	1	17	0	10111.jpg	4	4	1	1	1	300	37911	5	2	1	18	0	00011.jpg	3	3	1	0	1	400	61921	5	2	1	19	0	10111.jpg	4	4	1	1	1	500	26971	5	2	1	20	0	00001.jpg	1	1	0	0	1	600	86361	5	2	1	21	0	00111.jpg	3	4	1	0	0	500	25481	5	2	1	22	0	10101.jpg	2	2	0	1	1	600	129671	5	2	1	23	0	01000.jpg	1	1	0	0	1	700	49931	5	2	1	24	0	01101.jpg	2	2	0	1	1	800	41071	5	2	1	25	0	00010.jpg	3	3	1	0	1	900	25591	5	2	1	26	0	10100.jpg	2	2	0	1	1	1000	52731	5	2	1	27	0	11001.jpg	2	1	0	1	0	900	22311	5	2	1	28	0	11111.jpg	4	4	1	1	1	1000	261101	5	2	1	29	0	00101.jpg	1	2	0	0	0	900	33211	5	2	1	30	0	11100.jpg	2	2	0	1	1	1000	45651	5	2	1	31	0	11001.jpg	2	1	0	1	0	900	40791	5	2	1	32	0	01010.jpg	3	3	1	0	1	1000	208281	5	2	2	33	0	01001.jpg	1	2	0	0	0	900	460771	5	2	2	34	0	11100.jpg	2	2	0	1	1	1000	42811	5	2	2	35	0	00011.jpg	3	3	1	0	1	1100	37191	5	2	2	36	0	10000.jpg	1	2	0	0	0	1000	147961	5	2	2	37	0	10101.jpg	2	2	0	1	1	1100	37631	5	2	2	38	0	10000.jpg	1	1	0	0	1	1200	75661	5	2	2	39	0	10000.jpg	1	1	0	0	1	1300	15681	5	2	2	40	0	10100.jpg	2	2	0	1	1	1400	34501	5	2	2	41	0	10110.jpg	4	4	1	1	1	1500	22881	5	2	2	42	0	11101.jpg	2	2	0	1	1	1600	114291	5	2	2	43	0	10011.jpg	3	3	1	0	1	1700	33721	5	2	2	44	0	10010.jpg	3	3	1	0	1	1800	21351	5	2	2	45	0	11000.jpg	2	1	0	1	0	1700	141371	5	2	2	46	0	11000.jpg	2	2	0	1	1	1800	75421	5	2	2	47	0	10001.jpg	1	1	0	0	1	1900	102421	5	2	2	48	0	10001.jpg	1	1	0	0	1	2000	14571	5	2	2	49	0	11111.jpg	4	4	1	1	1	2100	26231	5	2	2	50	0	01100.jpg	2	2	0	1	1	2200	103011	5	2	2	51	0	00110.jpg	3	4	1	0	0	2100	27631	5	2	2	52	0	11100.jpg	2	2	0	1	1	2200	97561	5	2	2	53	0	00100.jpg	1	2	0	0	0	2100	42161	5	2	2	54	0	11001.jpg	2	2	0	1	1	2200	305261	5	2	2	55	0	00011.jpg	3	3	1	0	1	2300	64661	5	2	2	56	0	01111.jpg	4	3	1	1	0	2200	39691	5	2	2	57	0	11000.jpg	2	2	0	1	1	2300	151041	5	2	2	58	0	11101.jpg	2	1	0	1	0	2200	288451	5	2	2	59	0	01111.jpg	4	4	1	1	1	2300	53631	5	2	2	60	0	10011.jpg	3	3	1	0	1	2400	31811	5	2	2	61	0	01101.jpg	2	2	0	1	1	2500	44151	5	2	2	62	0	01011.jpg	3	3	1	0	1	2600	19581	5	2	2	63	0	01001.jpg	1	2	0	0	0	2500	27131	5	2	2	64	0	01110.jpg	4	4	1	1	1	2600	50051	5	2	3	65	0	10100.jpg	2	2	0	1	1	2700	230131	5	2	3	66	0	01000.jpg	1	2	0	0	0	2600	29961	5	2	3	67	0	01001.jpg	1	1	0	0	1	2700	56211	5	2	3	68	0	00101.jpg	1	2	0	0	0	2600	55011	5	2	3	69	0	00100.jpg	1	1	0	0	1	2700	50241	5	2	3	70	0	00110.jpg	3	4	1	0	0	2600	79291	5	2	3	71	0	01011.jpg	3	3	1	0	1	2700	79091	5	2	3	72	0	00110.jpg	3	3	1	0	1	2800	186411	5	2	3	73	0	01111.jpg	4	3	1	1	0	2700	23291	5	2	3	74	0	10101.jpg	2	2	0	1	1	2800	148911	5	2	3	75	0	11011.jpg	4	3	1	1	0	2700	29701	5	2	3	76	0	00100.jpg	1	2	0	0	0	2600	259601	5	2	3	77	0	11010.jpg	4	3	1	1	0	2500	53381	5	2	3	78	0	10110.jpg	4	4	1	1	1	2600	66121	5	2	3	79	0	11010.jpg	4	3	1	1	0	2500	46661	5	2	3	80	0	11110.jpg	4	4	1	1	1	2600	39981	5	2	3	81	0	11010.jpg	4	4	1	1	1	2700	82071	5	2	3	82	0	01000.jpg	1	1	0	0	1	2800	112941	5	2	3	83	0	11011.jpg	4	4	1	1	1	2900	56501	5	2	3	84	0	00001.jpg	1	1	0	0	1	3000	100401	5	2	3	85	0	11101.jpg	2	2	0	1	1	3100	53511	5	2	3	86	0	11110.jpg	4	4	1	1	1	3200	48611	5	2	3	87	0	00010.jpg	3	3	1	0	1	3300	159071	5	2	3	88	0	01100.jpg	2	1	0	1	0	3200	224001	5	2	3	89	0	10010.jpg	3	4	1	0	0	3100	45761	5	2	3	90	0	01110.jpg	4	4	1	1	1	3200	74981	5	2	3	91	0	10011.jpg	3	4	1	0	0	3100	66781	5	2	3	92	0	00111.jpg	3	4	1	0	0	3000	200041	5	2	3	93	0	10001.jpg	1	2	0	0	0	2900	57461	5	2	3	94	0	00000.jpg	1	1	0	0	1	3000	45261	5	2	3	95	0	00000.jpg	1	1	0	0	1	3100	29541	5	2	3	96	0	01011.jpg	3	4	1	0	0	3000	46521	5	2	0	97	1	01000pt.jpg	3	4	1	0	0	3000	46521	5	2	0	98	1	01010pt.jpg	3	4	1	0	0	3000	46521	5	2	0	99	1	10101pt.jpg	3	4	1	0	0	3000	46521	5	2	0	100	1	11011pt.jpg	3	4	1	0	1	3000	46521	5	2	0	101	1	11111pt.jpg	3	4	1	0	0	3000	46521	5	2	0	102	1	00101pt.jpg	3	4	1	0	1	3000	46521	5	2	0	103	1	00111pt.jpg	3	4	1	0	1	3000	46521	5	2	0	104	1	11110pt.jpg	3	4	1	0	1	3000	46521	5	3	1	1	0	01110.jpg	2	1	0	1	0	-100	386101	5	3	1	2	0	10110.jpg	2	2	0	1	1	0	74831	5	3	1	3	0	10100.jpg	1	2	0	0	0	-100	211751	5	3	1	4	0	00000.jpg	1	1	0	0	1	0	46971	5	3	1	5	0	00011.jpg	3	2	1	0	0	-100	28701	5	3	1	6	0	00100.jpg	1	2	0	0	0	-200	42911	5	3	1	7	0	01011.jpg	3	3	1	0	1	-100	183681	5	3	1	8	0	00001.jpg	1	1	0	0	1	0	69711	5	3	1	9	0	00101.jpg	1	2	0	0	0	-100	141561	5	3	1	10	0	11011.jpg	4	3	1	1	0	-200	73031	5	3	1	11	0	10011.jpg	3	3	1	0	1	-100	139291	5	3	1	12	0	00001.jpg	1	1	0	0	1	0	69721	5	3	1	13	0	11110.jpg	2	4	0	1	0	-100	87431	5	3	1	14	0	10000.jpg	1	1	0	0	1	0	103291	5	3	1	15	0	11001.jpg	2	2	0	1	1	100	132051	5	3	1	16	0	01000.jpg	1	4	0	0	0	0	272611	5	3	1	17	0	10101.jpg	2	1	0	1	0	-100	255791	5	3	1	18	0	00010.jpg	1	3	0	0	0	-200	129491	5	3	1	19	0	10011.jpg	3	3	1	0	1	-100	87441	5	3	1	20	0	01101.jpg	2	2	0	1	1	0	64981	5	3	1	21	0	01000.jpg	1	2	0	0	0	-100	66311	5	3	1	22	0	10001.jpg	1	2	0	0	0	-200	87991	5	3	1	23	0	00100.jpg	1	2	0	0	0	-300	163991	5	3	1	24	0	00000.jpg	1	2	0	0	0	-400	54801	5	3	1	25	0	00101.jpg	1	1	0	0	1	-300	31651	5	3	1	26	0	01111.jpg	4	3	1	1	0	-400	56801	5	3	1	27	0	01010.jpg	1	2	0	0	0	-500	54921	5	3	1	28	0	10111.jpg	4	2	1	1	0	-600	111431	5	3	1	29	0	01110.jpg	2	2	0	1	1	-500	213771	5	3	1	30	0	11011.jpg	4	1	1	1	0	-600	99711	5	3	1	31	0	00110.jpg	1	4	0	0	0	-700	103061	5	3	1	32	0	10000.jpg	1	1	0	0	1	-600	313981	5	3	2	33	0	11010.jpg	2	3	0	1	0	-700	65341	5	3	2	34	0	00111.jpg	3	4	1	0	0	-800	116501	5	3	2	35	0	01001.jpg	1	3	0	0	0	-900	138971	5	3	2	36	0	01111.jpg	4	2	1	1	0	-1000	59411	5	3	2	37	0	10010.jpg	1	3	0	0	0	-1100	159171	5	3	2	38	0	00100.jpg	1	2	0	0	0	-1200	95291	5	3	2	39	0	00111.jpg	3	1	1	0	0	-1300	67661	5	3	2	40	0	11110.jpg	2	4	0	1	0	-1400	16871	5	3	2	41	0	00110.jpg	1	3	0	0	0	-1500	21081	5	3	2	42	0	00111.jpg	3	2	1	0	0	-1600	30311	5	3	2	43	0	01100.jpg	2	3	0	1	0	-1700	18071	5	3	2	44	0	10000.jpg	1	1	0	0	1	-1600	39441	5	3	2	45	0	10010.jpg	1	3	0	0	0	-1700	33541	5	3	2	46	0	11101.jpg	2	2	0	1	1	-1600	18371	5	3	2	47	0	00010.jpg	1	3	0	0	0	-1700	67001	5	3	2	48	0	10100.jpg	1	1	0	0	1	-1600	23441	5	3	2	49	0	11110.jpg	2	3	0	1	0	-1700	42751	5	3	2	50	0	01011.jpg	3	3	1	0	1	-1600	38401	5	3	2	51	0	10001.jpg	1	1	0	0	1	-1500	24481	5	3	2	52	0	11000.jpg	1	4	0	0	0	-1600	126721	5	3	2	53	0	11010.jpg	2	3	0	1	0	-1700	132681	5	3	2	54	0	10110.jpg	2	2	0	1	1	-1600	72831	5	3	2	55	0	00011.jpg	3	1	1	0	0	-1700	101991	5	3	2	56	0	01100.jpg	2	3	0	1	0	-1800	58231	5	3	2	57	0	01110.jpg	2	3	0	1	0	-1900	35681	5	3	2	58	0	00010.jpg	1	2	0	0	0	-2000	75851	5	3	2	59	0	00110.jpg	1	2	0	0	0	-2100	40831	5	3	2	60	0	01111.jpg	4	2	1	1	0	-2200	234711	5	3	2	61	0	10101.jpg	2	1	0	1	0	-2300	35791	5	3	2	62	0	11100.jpg	2	2	0	1	1	-2200	42521	5	3	2	63	0	01010.jpg	1	3	0	0	0	-2300	71061	5	3	2	64	0	10110.jpg	2	4	0	1	0	-2400	129901	5	3	3	65	0	01101.jpg	2	3	0	1	0	-2500	202321	5	3	3	66	0	11111.jpg	4	4	1	1	1	-2400	46141	5	3	3	67	0	00000.jpg	1	1	0	0	1	-2300	27071	5	3	3	68	0	11100.jpg	2	3	0	1	0	-2400	65671	5	3	3	69	0	11111.jpg	4	4	1	1	1	-2300	53781	5	3	3	70	0	11111.jpg	4	4	1	1	1	-2200	21051	5	3	3	71	0	01001.jpg	1	2	0	0	0	-2300	62131	5	3	3	72	0	11001.jpg	2	1	0	1	0	-2400	50451	5	3	3	73	0	10111.jpg	4	4	1	1	1	-2300	27481	5	3	3	74	0	01011.jpg	3	3	1	0	1	-2200	52781	5	3	3	75	0	01100.jpg	2	2	0	1	1	-2100	21951	5	3	3	76	0	11011.jpg	4	3	1	1	0	-2200	46761	5	3	3	77	0	11000.jpg	1	3	0	0	0	-2300	167041	5	3	3	78	0	11101.jpg	2	2	0	1	1	-2200	76111	5	3	3	79	0	01101.jpg	2	2	0	1	1	-2100	73721	5	3	3	80	0	10011.jpg	3	3	1	0	1	-2000	70061	5	3	3	81	0	11001.jpg	2	1	0	1	0	-2100	51821	5	3	3	82	0	11100.jpg	2	2	0	1	1	-2000	35921	5	3	3	83	0	10100.jpg	1	2	0	0	0	-2100	77211	5	3	3	84	0	11101.jpg	2	2	0	1	1	-2000	40461	5	3	3	85	0	00001.jpg	1	1	0	0	1	-1900	22591	5	3	3	86	0	00101.jpg	1	1	0	0	1	-1800	28101	5	3	3	87	0	11010.jpg	2	3	0	1	0	-1900	40601	5	3	3	88	0	10001.jpg	1	1	0	0	1	-1800	61041	5	3	3	89	0	01001.jpg	1	2	0	0	0	-1900	60701	5	3	3	90	0	10111.jpg	4	4	1	1	1	-1800	28831	5	3	3	91	0	00011.jpg	3	3	1	0	1	-1700	62081	5	3	3	92	0	11000.jpg	1	2	0	0	0	-1800	28161	5	3	3	93	0	01010.jpg	1	3	0	0	0	-1900	41271	5	3	3	94	0	10010.jpg	1	3	0	0	0	-2000	32351	5	3	3	95	0	01000.jpg	1	2	0	0	0	-2100	73851	5	3	3	96	0	10101.jpg	2	2	0	1	1	-2000	64901	5	3	0	97	1	11111pt.jpg	2	2	0	1	0	-2000	64901	5	3	0	98	1	11110pt.jpg	2	2	0	1	0	-2000	64901	5	3	0	99	1	01010pt.jpg	2	2	0	1	0	-2000	64901	5	3	0	100	1	01000pt.jpg	2	2	0	1	1	-2000	64901	5	3	0	101	1	11011pt.jpg	2	2	0	1	0	-2000	64901	5	3	0	102	1	10101pt.jpg	2	2	0	1	1	-2000	64901	5	3	0	103	1	00111pt.jpg	2	2	0	1	0	-2000	64901	5	3	0	104	1	00101pt.jpg	2	2	0	1	0	-2000	64901	6	1	1	1	0	10110.jpg	4	3	1	1	0	-100	287551	6	1	1	2	0	00000.jpg	1	2	0	0	0	-200	239151	6	1	1	3	0	11111.jpg	4	4	1	1	1	-100	235991	6	1	1	4	0	10010.jpg	2	3	0	1	0	-200	110451	6	1	1	5	0	11011.jpg	2	4	0	1	0	-300	35881	6	1	1	6	0	00110.jpg	2	2	0	1	1	-200	305181	6	1	1	7	0	01111.jpg	2	2	0	1	1	-100	134341	6	1	1	8	0	11100.jpg	3	1	1	0	0	-200	203281	6	1	1	9	0	01111.jpg	2	2	0	1	1	-100	64851	6	1	1	10	0	10001.jpg	1	3	0	0	0	-200	41771	6	1	1	11	0	01010.jpg	2	2	0	1	1	-100	60761	6	1	1	12	0	01110.jpg	2	2	0	1	1	0	39681	6	1	1	13	0	11000.jpg	1	1	0	0	1	100	516741	6	1	1	14	0	11001.jpg	1	3	0	0	0	0	237601	6	1	1	15	0	11101.jpg	3	4	1	0	0	-100	269051	6	1	1	16	0	10100.jpg	3	3	1	0	1	0	33651	6	1	1	17	0	11000.jpg	1	1	0	0	1	100	44401	6	1	1	18	0	10100.jpg	3	3	1	0	1	200	31271	6	1	1	19	0	00010.jpg	2	2	0	1	1	300	244031	6	1	1	20	0	10111.jpg	4	4	1	1	1	400	83321	6	1	1	21	0	00110.jpg	2	2	0	1	1	500	155101	6	1	1	22	0	11111.jpg	4	4	1	1	1	600	36801	6	1	1	23	0	10110.jpg	4	4	1	1	1	700	24371	6	1	1	24	0	01011.jpg	2	2	0	1	1	800	32671	6	1	1	25	0	01110.jpg	2	2	0	1	1	900	22411	6	1	1	26	0	11101.jpg	3	3	1	0	1	1000	76711	6	1	1	27	0	11110.jpg	4	4	1	1	1	1100	20381	6	1	1	28	0	00100.jpg	1	1	0	0	1	1200	31971	6	1	1	29	0	11110.jpg	4	4	1	1	1	1300	36371	6	1	1	30	0	01100.jpg	1	1	0	0	1	1400	18191	6	1	1	31	0	00111.jpg	2	2	0	1	1	1500	28741	6	1	1	32	0	11100.jpg	3	3	1	0	1	1600	32001	6	1	2	33	0	11011.jpg	2	4	0	1	0	1500	31631	6	1	2	34	0	01001.jpg	1	1	0	0	1	1600	208111	6	1	2	35	0	00101.jpg	1	1	0	0	1	1700	22281	6	1	2	36	0	01010.jpg	2	2	0	1	1	1800	20611	6	1	2	37	0	10010.jpg	2	4	0	1	0	1700	72661	6	1	2	38	0	10010.jpg	2	2	0	1	1	1800	390091	6	1	2	39	0	00000.jpg	1	1	0	0	1	1900	20171	6	1	2	40	0	00110.jpg	2	2	0	1	1	2000	23771	6	1	2	41	0	00011.jpg	2	2	0	1	1	2100	23471	6	1	2	42	0	10100.jpg	3	3	1	0	1	2200	33321	6	1	2	43	0	01010.jpg	2	2	0	1	1	2300	27771	6	1	2	44	0	10101.jpg	3	3	1	0	1	2400	19621	6	1	2	45	0	10111.jpg	4	4	1	1	1	2500	31641	6	1	2	46	0	01011.jpg	2	2	0	1	1	2600	25581	6	1	2	47	0	00100.jpg	1	1	0	0	1	2700	13931	6	1	2	48	0	01000.jpg	1	1	0	0	1	2800	22501	6	1	2	49	0	01101.jpg	1	1	0	0	1	2900	15611	6	1	2	50	0	11010.jpg	2	2	0	1	1	3000	64751	6	1	2	51	0	11010.jpg	2	2	0	1	1	3100	27361	6	1	2	52	0	01000.jpg	1	1	0	0	1	3200	44271	6	1	2	53	0	01110.jpg	2	2	0	1	1	3300	20191	6	1	2	54	0	00000.jpg	1	1	0	0	1	3400	15631	6	1	2	55	0	00011.jpg	2	2	0	1	1	3500	25901	6	1	2	56	0	10011.jpg	2	2	0	1	1	3600	91981	6	1	2	57	0	00010.jpg	2	2	0	1	1	3700	17511	6	1	2	58	0	00011.jpg	2	2	0	1	1	3800	18501	6	1	2	59	0	00101.jpg	1	1	0	0	1	3900	13131	6	1	2	60	0	01100.jpg	1	1	0	0	1	4000	20931	6	1	2	61	0	10011.jpg	2	2	0	1	1	4100	41231	6	1	2	62	0	00111.jpg	2	2	0	1	1	4200	23901	6	1	2	63	0	00101.jpg	1	1	0	0	1	4300	12631	6	1	2	64	0	11010.jpg	2	2	0	1	1	4400	23341	6	1	3	65	0	10001.jpg	1	1	0	0	1	4500	29451	6	1	3	66	0	01100.jpg	1	1	0	0	1	4600	48621	6	1	3	67	0	01101.jpg	1	1	0	0	1	4700	38991	6	1	3	68	0	10111.jpg	4	4	1	1	1	4800	33121	6	1	3	69	0	11111.jpg	4	4	1	1	1	4900	19311	6	1	3	70	0	00111.jpg	2	2	0	1	1	5000	65341	6	1	3	71	0	11001.jpg	1	1	0	0	1	5100	25691	6	1	3	72	0	01011.jpg	2	2	0	1	1	5200	23381	6	1	3	73	0	10110.jpg	4	4	1	1	1	5300	21261	6	1	3	74	0	10011.jpg	2	2	0	1	1	5400	19771	6	1	3	75	0	11011.jpg	2	2	0	1	1	5500	14411	6	1	3	76	0	10101.jpg	3	1	1	0	0	5400	15921	6	1	3	77	0	11110.jpg	4	4	1	1	1	5500	59931	6	1	3	78	0	10001.jpg	1	1	0	0	1	5600	19761	6	1	3	79	0	00001.jpg	1	1	0	0	1	5700	85231	6	1	3	80	0	00010.jpg	2	2	0	1	1	5800	15821	6	1	3	81	0	10000.jpg	1	1	0	0	1	5900	18231	6	1	3	82	0	10000.jpg	1	1	0	0	1	6000	18801	6	1	3	83	0	00100.jpg	1	1	0	0	1	6100	48851	6	1	3	84	0	11100.jpg	3	3	1	0	1	6200	54271	6	1	3	85	0	00001.jpg	1	1	0	0	1	6300	28181	6	1	3	86	0	11001.jpg	1	1	0	0	1	6400	23221	6	1	3	87	0	01101.jpg	1	1	0	0	1	6500	22151	6	1	3	88	0	10101.jpg	3	3	1	0	1	6600	29181	6	1	3	89	0	01001.jpg	1	1	0	0	1	6700	33391	6	1	3	90	0	00001.jpg	1	1	0	0	1	6800	13041	6	1	3	91	0	01001.jpg	1	1	0	0	1	6900	15631	6	1	3	92	0	11101.jpg	3	3	1	0	1	7000	22691	6	1	3	93	0	01000.jpg	1	1	0	0	1	7100	22601	6	1	3	94	0	11000.jpg	1	1	0	0	1	7200	78981	6	1	3	95	0	01111.jpg	2	2	0	1	1	7300	31671	6	1	3	96	0	10000.jpg	1	1	0	0	1	7400	28491	6	1	0	97	1	11111pt.jpg	1	3	0	0	0	7400	247581	6	1	0	98	1	10101pt.jpg	1	2	0	0	0	7400	300931	6	1	0	99	1	11011pt.jpg	1	4	0	0	0	7400	395591	6	1	0	100	1	01010pt.jpg	1	2	0	0	1	7400	115831	6	1	0	101	1	11110pt.jpg	1	3	0	0	0	7400	107891	6	1	0	102	1	01000pt.jpg	1	1	0	0	1	7400	241471	6	1	0	103	1	00101pt.jpg	1	2	0	0	0	7400	122921	6	1	0	104	1	00111pt.jpg	1	1	0	0	0	7400	307571	6	2	1	1	0	10010.jpg	3	4	1	0	0	-100	309191	6	2	1	2	0	11001.jpg	2	1	0	1	0	-200	192671	6	2	1	3	0	00010.jpg	3	1	1	0	0	-300	220011	6	2	1	4	0	01101.jpg	2	4	0	1	0	-400	104261	6	2	1	5	0	01010.jpg	3	3	1	0	1	-300	146321	6	2	1	6	0	00000.jpg	1	4	0	0	0	-400	98331	6	2	1	7	0	00010.jpg	3	3	1	0	1	-300	166871	6	2	1	8	0	01000.jpg	1	2	0	0	0	-400	167411	6	2	1	9	0	10000.jpg	1	2	0	0	0	-500	367271	6	2	1	10	0	01110.jpg	4	3	1	1	0	-600	463451	6	2	1	11	0	00001.jpg	1	1	0	0	1	-500	141311	6	2	1	12	0	10001.jpg	1	1	0	0	1	-400	290551	6	2	1	13	0	11011.jpg	4	1	1	1	0	-500	330701	6	2	1	14	0	00111.jpg	3	3	1	0	1	-400	565301	6	2	1	15	0	10100.jpg	2	3	0	1	0	-500	168051	6	2	1	16	0	10010.jpg	3	4	1	0	0	-600	224611	6	2	1	17	0	11100.jpg	2	2	0	1	1	-500	224841	6	2	1	18	0	10100.jpg	2	2	0	1	1	-400	81361	6	2	1	19	0	01111.jpg	4	4	1	1	1	-300	64601	6	2	1	20	0	00000.jpg	1	3	0	0	0	-400	61451	6	2	1	21	0	10101.jpg	2	2	0	1	1	-300	46521	6	2	1	22	0	00101.jpg	1	4	0	0	0	-400	162501	6	2	1	23	0	00110.jpg	3	3	1	0	1	-300	287361	6	2	1	24	0	01011.jpg	3	3	1	0	1	-200	244521	6	2	1	25	0	10100.jpg	2	2	0	1	1	-100	56271	6	2	1	26	0	01111.jpg	4	3	1	1	0	-200	300591	6	2	1	27	0	01000.jpg	1	1	0	0	1	-100	102791	6	2	1	28	0	11001.jpg	2	1	0	1	0	-200	43881	6	2	1	29	0	11000.jpg	2	2	0	1	1	-100	62871	6	2	1	30	0	11010.jpg	4	2	1	1	0	-200	200591	6	2	1	31	0	01001.jpg	1	1	0	0	1	-100	59131	6	2	1	32	0	00111.jpg	3	4	1	0	0	-200	107961	6	2	2	33	0	11110.jpg	4	2	1	1	0	-300	135961	6	2	2	34	0	11101.jpg	2	2	0	1	1	-200	41801	6	2	2	35	0	01100.jpg	2	1	0	1	0	-300	91891	6	2	2	36	0	01011.jpg	3	3	1	0	1	-200	118221	6	2	2	37	0	00011.jpg	3	3	1	0	1	-100	50381	6	2	2	38	0	11111.jpg	4	4	1	1	1	0	66061	6	2	2	39	0	10101.jpg	2	2	0	1	1	100	44941	6	2	2	40	0	01010.jpg	3	3	1	0	1	200	22981	6	2	2	41	0	00001.jpg	1	1	0	0	1	300	34491	6	2	2	42	0	11111.jpg	4	4	1	1	1	400	35511	6	2	2	43	0	10111.jpg	4	4	1	1	1	500	21681	6	2	2	44	0	10010.jpg	3	2	1	0	0	400	142091	6	2	2	45	0	00110.jpg	3	3	1	0	1	500	147371	6	2	2	46	0	11110.jpg	4	4	1	1	1	600	60521	6	2	2	47	0	11100.jpg	2	2	0	1	1	700	59381	6	2	2	48	0	00011.jpg	3	3	1	0	1	800	18131	6	2	2	49	0	00011.jpg	3	3	1	0	1	900	17021	6	2	2	50	0	11101.jpg	2	2	0	1	1	1000	52021	6	2	2	51	0	01011.jpg	3	3	1	0	1	1100	145061	6	2	2	52	0	11000.jpg	2	1	0	1	0	1000	36401	6	2	2	53	0	11011.jpg	4	2	1	1	0	900	80801	6	2	2	54	0	11010.jpg	4	4	1	1	1	1000	118031	6	2	2	55	0	01101.jpg	2	1	0	1	0	900	163231	6	2	2	56	0	01001.jpg	1	1	0	0	1	1000	43181	6	2	2	57	0	11011.jpg	4	4	1	1	1	1100	88991	6	2	2	58	0	10110.jpg	4	4	1	1	1	1200	49981	6	2	2	59	0	00111.jpg	3	3	1	0	1	1300	132461	6	2	2	60	0	01010.jpg	3	3	1	0	1	1400	22051	6	2	2	61	0	00100.jpg	1	2	0	0	0	1300	110541	6	2	2	62	0	10011.jpg	3	4	1	0	0	1200	218931	6	2	2	63	0	00100.jpg	1	1	0	0	1	1300	97441	6	2	2	64	0	10011.jpg	3	3	1	0	1	1400	49311	6	2	3	65	0	00110.jpg	3	3	1	0	1	1500	80401	6	2	3	66	0	00100.jpg	1	1	0	0	1	1600	34161	6	2	3	67	0	10001.jpg	1	1	0	0	1	1700	97361	6	2	3	68	0	01111.jpg	4	3	1	1	0	1600	58741	6	2	3	69	0	01101.jpg	2	2	0	1	1	1700	110871	6	2	3	70	0	10111.jpg	4	4	1	1	1	1800	27961	6	2	3	71	0	01110.jpg	4	3	1	1	0	1700	27221	6	2	3	72	0	10000.jpg	1	1	0	0	1	1800	123091	6	2	3	73	0	11100.jpg	2	2	0	1	1	1900	32331	6	2	3	74	0	00000.jpg	1	1	0	0	1	2000	102491	6	2	3	75	0	11001.jpg	2	1	0	1	0	1900	70311	6	2	3	76	0	01001.jpg	1	1	0	0	1	2000	98551	6	2	3	77	0	00101.jpg	1	2	0	0	0	1900	53031	6	2	3	78	0	11110.jpg	4	4	1	1	1	2000	58731	6	2	3	79	0	11010.jpg	4	3	1	1	0	1900	209991	6	2	3	80	0	00001.jpg	1	1	0	0	1	2000	33081	6	2	3	81	0	10001.jpg	1	1	0	0	1	2100	29051	6	2	3	82	0	10110.jpg	4	4	1	1	1	2200	35021	6	2	3	83	0	11101.jpg	2	2	0	1	1	2300	41531	6	2	3	84	0	01000.jpg	1	1	0	0	1	2400	22691	6	2	3	85	0	10111.jpg	4	4	1	1	1	2500	19191	6	2	3	86	0	01100.jpg	2	1	0	1	0	2400	74101	6	2	3	87	0	11111.jpg	4	4	1	1	1	2500	51211	6	2	3	88	0	10110.jpg	4	4	1	1	1	2600	17651	6	2	3	89	0	10011.jpg	3	3	1	0	1	2700	110541	6	2	3	90	0	00010.jpg	3	3	1	0	1	2800	62771	6	2	3	91	0	10101.jpg	2	2	0	1	1	2900	27071	6	2	3	92	0	01100.jpg	2	2	0	1	1	3000	78951	6	2	3	93	0	10000.jpg	1	1	0	0	1	3100	36441	6	2	3	94	0	00101.jpg	1	2	0	0	0	3000	38821	6	2	3	95	0	11000.jpg	2	1	0	1	0	2900	51521	6	2	3	96	0	01110.jpg	4	3	1	1	0	2800	204661	6	2	0	97	1	11111pt.jpg	4	3	1	1	1	2800	204661	6	2	0	98	1	00101pt.jpg	4	3	1	1	0	2800	204661	6	2	0	99	1	10101pt.jpg	4	3	1	1	1	2800	204661	6	2	0	100	1	11110pt.jpg	4	3	1	1	1	2800	204661	6	2	0	101	1	11011pt.jpg	4	3	1	1	0	2800	204661	6	2	0	102	1	01000pt.jpg	4	3	1	1	1	2800	204661	6	2	0	103	1	00111pt.jpg	4	3	1	1	1	2800	204661	6	2	0	104	1	01010pt.jpg	4	3	1	1	1	2800	204661	6	3	1	1	0	10101.jpg	2	4	0	1	0	-100	329841	6	3	1	2	0	00010.jpg	1	1	0	0	1	0	126971	6	3	1	3	0	00001.jpg	1	1	0	0	1	100	87261	6	3	1	4	0	11000.jpg	1	1	0	0	1	200	103941	6	3	1	5	0	01111.jpg	4	2	1	1	0	100	85941	6	3	1	6	0	10111.jpg	4	2	1	1	0	0	138821	6	3	1	7	0	00101.jpg	1	2	0	0	0	-100	127091	6	3	1	8	0	00001.jpg	1	1	0	0	1	0	59061	6	3	1	9	0	01000.jpg	1	1	0	0	1	100	15341	6	3	1	10	0	00100.jpg	1	1	0	0	1	200	39851	6	3	1	11	0	01010.jpg	1	2	0	0	0	100	116581	6	3	1	12	0	00010.jpg	1	1	0	0	1	200	52891	6	3	1	13	0	11001.jpg	2	1	0	1	0	100	205101	6	3	1	14	0	01000.jpg	1	1	0	0	1	200	32001	6	3	1	15	0	11010.jpg	2	2	0	1	1	300	205221	6	3	1	16	0	00011.jpg	3	1	1	0	0	200	64291	6	3	1	17	0	11010.jpg	2	2	0	1	1	300	109881	6	3	1	18	0	10100.jpg	1	4	0	0	0	200	181971	6	3	1	19	0	10001.jpg	1	1	0	0	1	300	69581	6	3	1	20	0	10110.jpg	2	4	0	1	0	200	70421	6	3	1	21	0	01000.jpg	1	1	0	0	1	300	42391	6	3	1	22	0	11110.jpg	2	2	0	1	1	400	56561	6	3	1	23	0	10111.jpg	4	2	1	1	0	300	69891	6	3	1	24	0	10101.jpg	2	4	0	1	0	200	62691	6	3	1	25	0	01001.jpg	1	1	0	0	1	300	74911	6	3	1	26	0	01001.jpg	1	1	0	0	1	400	210561	6	3	1	27	0	11110.jpg	2	2	0	1	1	500	121111	6	3	1	28	0	11011.jpg	4	2	1	1	0	400	110101	6	3	1	29	0	11001.jpg	2	1	0	1	0	300	47291	6	3	1	30	0	01100.jpg	2	1	0	1	0	200	71731	6	3	1	31	0	10111.jpg	4	4	1	1	1	300	54941	6	3	1	32	0	10010.jpg	1	2	0	0	0	200	102021	6	3	2	33	0	00001.jpg	1	1	0	0	1	300	35621	6	3	2	34	0	10101.jpg	2	2	0	1	1	400	139091	6	3	2	35	0	11110.jpg	2	2	0	1	1	500	28261	6	3	2	36	0	01101.jpg	2	2	0	1	1	600	33841	6	3	2	37	0	11011.jpg	4	4	1	1	1	700	24981	6	3	2	38	0	00110.jpg	1	2	0	0	0	600	125421	6	3	2	39	0	00000.jpg	1	1	0	0	1	700	23451	6	3	2	40	0	00111.jpg	3	4	1	0	0	600	40441	6	3	2	41	0	00101.jpg	1	2	0	0	0	500	197781	6	3	2	42	0	10010.jpg	1	1	0	0	1	600	180761	6	3	2	43	0	00011.jpg	3	1	1	0	0	500	41931	6	3	2	44	0	10011.jpg	3	4	1	0	0	400	79711	6	3	2	45	0	00011.jpg	3	3	1	0	1	500	32191	6	3	2	46	0	10110.jpg	2	2	0	1	1	600	116601	6	3	2	47	0	01111.jpg	4	3	1	1	0	500	90511	6	3	2	48	0	11100.jpg	2	2	0	1	1	600	64621	6	3	2	49	0	11111.jpg	4	4	1	1	1	700	27311	6	3	2	50	0	01010.jpg	1	1	0	0	1	800	75431	6	3	2	51	0	00000.jpg	1	1	0	0	1	900	18421	6	3	2	52	0	00100.jpg	1	1	0	0	1	1000	29851	6	3	2	53	0	01011.jpg	3	3	1	0	1	1100	39551	6	3	2	54	0	01011.jpg	3	3	1	0	1	1200	19341	6	3	2	55	0	10011.jpg	3	4	1	0	0	1100	42661	6	3	2	56	0	10100.jpg	1	2	0	0	0	1000	31991	6	3	2	57	0	01100.jpg	2	1	0	1	0	900	32481	6	3	2	58	0	01110.jpg	2	1	0	1	0	800	54851	6	3	2	59	0	01010.jpg	1	1	0	0	1	900	32441	6	3	2	60	0	00000.jpg	1	1	0	0	1	1000	13471	6	3	2	61	0	11001.jpg	2	3	0	1	0	900	53331	6	3	2	62	0	10000.jpg	1	1	0	0	1	1000	38871	6	3	2	63	0	10000.jpg	1	1	0	0	1	1100	56951	6	3	2	64	0	10010.jpg	1	1	0	0	1	1200	52781	6	3	3	65	0	10000.jpg	1	1	0	0	1	1300	20201	6	3	3	66	0	11101.jpg	2	3	0	1	0	1200	82441	6	3	3	67	0	01101.jpg	2	3	0	1	0	1100	281711	6	3	3	68	0	00101.jpg	1	2	0	0	0	1000	62281	6	3	3	69	0	01011.jpg	3	4	1	0	0	900	101401	6	3	3	70	0	01111.jpg	4	4	1	1	1	1000	13821	6	3	3	71	0	11011.jpg	4	3	1	1	0	900	65601	6	3	3	72	0	01110.jpg	2	1	0	1	0	800	192391	6	3	3	73	0	00010.jpg	1	1	0	0	1	900	47031	6	3	3	74	0	10100.jpg	1	2	0	0	0	800	62191	6	3	3	75	0	10011.jpg	3	4	1	0	0	700	70761	6	3	3	76	0	10001.jpg	1	1	0	0	1	800	44321	6	3	3	77	0	11000.jpg	1	1	0	0	1	900	23991	6	3	3	78	0	00111.jpg	3	4	1	0	0	800	255431	6	3	3	79	0	11100.jpg	2	1	0	1	0	700	102911	6	3	3	80	0	11101.jpg	2	2	0	1	1	800	166161	6	3	3	81	0	10001.jpg	1	1	0	0	1	900	45591	6	3	3	82	0	11000.jpg	1	1	0	0	1	1000	20501	6	3	3	83	0	01110.jpg	2	1	0	1	0	900	39441	6	3	3	84	0	11101.jpg	2	2	0	1	1	1000	92681	6	3	3	85	0	00110.jpg	1	2	0	0	0	900	63291	6	3	3	86	0	11010.jpg	2	1	0	1	0	800	119481	6	3	3	87	0	01101.jpg	2	2	0	1	1	900	72941	6	3	3	88	0	00111.jpg	3	3	1	0	1	1000	83091	6	3	3	89	0	00110.jpg	1	1	0	0	1	1100	59531	6	3	3	90	0	10110.jpg	2	1	0	1	0	1000	134281	6	3	3	91	0	11111.jpg	4	4	1	1	1	1100	101311	6	3	3	92	0	11111.jpg	4	4	1	1	1	1200	21661	6	3	3	93	0	01001.jpg	1	1	0	0	1	1300	25111	6	3	3	94	0	00100.jpg	1	1	0	0	1	1400	45391	6	3	3	95	0	01100.jpg	2	1	0	1	0	1300	21901	6	3	3	96	0	11100.jpg	2	2	0	1	1	1400	284161	6	3	0	97	1	01010pt.jpg	2	2	0	1	1	1400	284161	6	3	0	98	1	11110pt.jpg	2	2	0	1	1	1400	284161	6	3	0	99	1	00111pt.jpg	2	2	0	1	1	1400	284161	6	3	0	100	1	00101pt.jpg	2	2	0	1	0	1400	284161	6	3	0	101	1	11011pt.jpg	2	2	0	1	0	1400	284161	6	3	0	102	1	11111pt.jpg	2	2	0	1	1	1400	284161	6	3	0	103	1	10101pt.jpg	2	2	0	1	1	1400	284161	6	3	0	104	1	01000pt.jpg	2	2	0	1	1	1400	284161	7	1	1	1	0	00110.jpg	2	3	0	1	0	-100	597561	7	1	1	2	0	11000.jpg	1	4	0	0	0	-200	331821	7	1	1	3	0	01011.jpg	2	2	0	1	1	-100	223411	7	1	1	4	0	10000.jpg	1	1	0	0	1	0	321111	7	1	1	5	0	11011.jpg	2	1	0	1	0	-100	646591	7	1	1	6	0	01111.jpg	2	3	0	1	0	-200	474091	7	1	1	7	0	10101.jpg	3	2	1	0	0	-300	318981	7	1	1	8	0	11111.jpg	4	2	1	1	0	-400	191431	7	1	1	9	0	00111.jpg	2	4	0	1	0	-500	1261741	7	1	1	10	0	10100.jpg	3	2	1	0	0	-600	249841	7	1	1	11	0	00000.jpg	1	1	0	0	1	-500	396551	7	1	1	12	0	11000.jpg	1	2	0	0	0	-600	71201	7	1	1	13	0	00001.jpg	1	1	0	0	1	-500	334021	7	1	1	14	0	01011.jpg	2	4	0	1	0	-600	204181	7	1	1	15	0	11110.jpg	4	4	1	1	1	-500	53551	7	1	1	16	0	01010.jpg	2	2	0	1	1	-400	153951	7	1	1	17	0	11101.jpg	3	3	1	0	1	-300	286681	7	1	1	18	0	10010.jpg	2	4	0	1	0	-400	378501	7	1	1	19	0	01001.jpg	1	1	0	0	1	-300	390571	7	1	1	20	0	00101.jpg	1	4	0	0	0	-400	335421	7	1	1	21	0	01111.jpg	2	1	0	1	0	-500	195541	7	1	1	22	0	00100.jpg	1	4	0	0	0	-600	415701	7	1	1	23	0	01001.jpg	1	3	0	0	0	-700	486911	7	1	1	24	0	00000.jpg	1	2	0	0	0	-800	62081	7	1	1	25	0	00000.jpg	1	1	0	0	1	-700	129441	7	1	1	26	0	00100.jpg	1	2	0	0	0	-800	145481	7	1	1	27	0	00110.jpg	2	2	0	1	1	-700	427571	7	1	1	28	0	01101.jpg	1	1	0	0	1	-600	142241	7	1	1	29	0	11111.jpg	4	4	1	1	1	-500	415431	7	1	1	30	0	00111.jpg	2	2	0	1	1	-400	293461	7	1	1	31	0	10000.jpg	1	3	0	0	0	-500	392441	7	1	1	32	0	10111.jpg	4	2	1	1	0	-600	470011	7	1	2	33	0	11011.jpg	2	3	0	1	0	-700	738331	7	1	2	34	0	10001.jpg	1	3	0	0	0	-800	88151	7	1	2	35	0	00101.jpg	1	2	0	0	0	-900	308381	7	1	2	36	0	01000.jpg	1	1	0	0	1	-800	83171	7	1	2	37	0	10011.jpg	2	4	0	1	0	-900	177621	7	1	2	38	0	01010.jpg	2	2	0	1	1	-800	22281	7	1	2	39	0	00011.jpg	2	2	0	1	1	-700	15621	7	1	2	40	0	10010.jpg	2	2	0	1	1	-600	182451	7	1	2	41	0	01110.jpg	2	2	0	1	1	-500	306911	7	1	2	42	0	00101.jpg	1	2	0	0	0	-600	221201	7	1	2	43	0	10111.jpg	4	4	1	1	1	-500	328111	7	1	2	44	0	10110.jpg	4	4	1	1	1	-400	71941	7	1	2	45	0	10101.jpg	3	1	1	0	0	-500	264191	7	1	2	46	0	01010.jpg	2	2	0	1	1	-400	69371	7	1	2	47	0	00001.jpg	1	1	0	0	1	-300	241321	7	1	2	48	0	11100.jpg	3	3	1	0	1	-200	184241	7	1	2	49	0	11101.jpg	3	3	1	0	1	-100	26581	7	1	2	50	0	10111.jpg	4	4	1	1	1	0	95271	7	1	2	51	0	01110.jpg	2	4	0	1	0	-100	81621	7	1	2	52	0	11101.jpg	3	3	1	0	1	0	34761	7	1	2	53	0	00010.jpg	2	2	0	1	1	100	69061	7	1	2	54	0	10100.jpg	3	3	1	0	1	200	252071	7	1	2	55	0	10100.jpg	3	3	1	0	1	300	35041	7	1	2	56	0	00011.jpg	2	2	0	1	1	400	17811	7	1	2	57	0	10011.jpg	2	2	0	1	1	500	216631	7	1	2	58	0	00010.jpg	2	2	0	1	1	600	13641	7	1	2	59	0	10011.jpg	2	2	0	1	1	700	40141	7	1	2	60	0	01100.jpg	1	3	0	0	0	600	202931	7	1	2	61	0	11110.jpg	4	4	1	1	1	700	197861	7	1	2	62	0	11100.jpg	3	3	1	0	1	800	54671	7	1	2	63	0	11000.jpg	1	3	0	0	0	700	149211	7	1	2	64	0	01110.jpg	2	4	0	1	0	600	117321	7	1	3	65	0	01101.jpg	1	1	0	0	1	700	254391	7	1	3	66	0	11100.jpg	3	3	1	0	1	800	51281	7	1	3	67	0	01000.jpg	1	1	0	0	1	900	115231	7	1	3	68	0	00111.jpg	2	4	0	1	0	800	369341	7	1	3	69	0	11110.jpg	4	3	1	1	0	700	138661	7	1	3	70	0	11001.jpg	1	1	0	0	1	800	75641	7	1	3	71	0	10110.jpg	4	4	1	1	1	900	99121	7	1	3	72	0	11010.jpg	2	4	0	1	0	800	191871	7	1	3	73	0	01111.jpg	2	4	0	1	0	700	157891	7	1	3	74	0	00011.jpg	2	2	0	1	1	800	44371	7	1	3	75	0	00010.jpg	2	2	0	1	1	900	17011	7	1	3	76	0	01100.jpg	1	1	0	0	1	1000	59211	7	1	3	77	0	11111.jpg	4	2	1	1	0	900	261981	7	1	3	78	0	01011.jpg	2	2	0	1	1	1000	91801	7	1	3	79	0	10000.jpg	1	1	0	0	1	1100	128781	7	1	3	80	0	01001.jpg	1	1	0	0	1	1200	33481	7	1	3	81	0	11010.jpg	2	4	0	1	0	1100	550791	7	1	3	82	0	11001.jpg	1	1	0	0	1	1200	188841	7	1	3	83	0	11001.jpg	1	1	0	0	1	1300	23861	7	1	3	84	0	10110.jpg	4	2	1	1	0	1200	156351	7	1	3	85	0	00110.jpg	2	2	0	1	1	1300	35831	7	1	3	86	0	01000.jpg	1	1	0	0	1	1400	34811	7	1	3	87	0	11011.jpg	2	2	0	1	1	1500	118541	7	1	3	88	0	10001.jpg	1	1	0	0	1	1600	32701	7	1	3	89	0	10001.jpg	1	1	0	0	1	1700	348671	7	1	3	90	0	01100.jpg	1	1	0	0	1	1800	14891	7	1	3	91	0	10101.jpg	3	1	1	0	0	1700	6861	7	1	3	92	0	00100.jpg	1	4	0	0	0	1600	160091	7	1	3	93	0	11010.jpg	2	4	0	1	0	1500	159151	7	1	3	94	0	10010.jpg	2	2	0	1	1	1600	39341	7	1	3	95	0	01101.jpg	1	1	0	0	1	1700	23861	7	1	3	96	0	00001.jpg	1	1	0	0	1	1800	99631	7	1	0	97	1	11111pt.jpg	1	3	0	0	0	1800	292941	7	1	0	98	1	11110pt.jpg	1	1	0	0	0	1800	296231	7	1	0	99	1	01000pt.jpg	1	2	0	0	0	1800	191071	7	1	0	100	1	00101pt.jpg	1	4	0	0	0	1800	354361	7	1	0	101	1	11011pt.jpg	1	1	0	0	0	1800	57701	7	1	0	102	1	10101pt.jpg	1	1	0	0	0	1800	131121	7	1	0	103	1	00111pt.jpg	1	2	0	0	1	1800	229281	7	1	0	104	1	01010pt.jpg	1	2	0	0	1	1800	343211	7	2	1	1	0	11001.jpg	2	1	0	1	0	-100	110901	7	2	1	2	0	10110.jpg	4	4	1	1	1	0	166241	7	2	1	3	0	10101.jpg	2	2	0	1	1	100	417671	7	2	1	4	0	00001.jpg	1	3	0	0	0	0	98311	7	2	1	5	0	11010.jpg	4	4	1	1	1	100	185421	7	2	1	6	0	01101.jpg	2	2	0	1	1	200	112251	7	2	1	7	0	10111.jpg	4	1	1	1	0	100	99441	7	2	1	8	0	11110.jpg	4	2	1	1	0	0	202721	7	2	1	9	0	10001.jpg	1	4	0	0	0	-100	193731	7	2	1	10	0	10111.jpg	4	1	1	1	0	-200	217411	7	2	1	11	0	00001.jpg	1	3	0	0	0	-300	449101	7	2	1	12	0	01111.jpg	4	4	1	1	1	-200	81071	7	2	1	13	0	01000.jpg	1	4	0	0	0	-300	105821	7	2	1	14	0	00011.jpg	3	3	1	0	1	-200	161031	7	2	1	15	0	00100.jpg	1	1	0	0	1	-100	344441	7	2	1	16	0	10100.jpg	2	2	0	1	1	0	174991	7	2	1	17	0	10100.jpg	2	2	0	1	1	100	102721	7	2	1	18	0	11111.jpg	4	2	1	1	0	0	78551	7	2	1	19	0	10010.jpg	3	3	1	0	1	100	151381	7	2	1	20	0	01111.jpg	4	4	1	1	1	200	347981	7	2	1	21	0	01010.jpg	3	3	1	0	1	300	65731	7	2	1	22	0	01011.jpg	3	3	1	0	1	400	30401	7	2	1	23	0	10101.jpg	2	2	0	1	1	500	90071	7	2	1	24	0	00111.jpg	3	3	1	0	1	600	53131	7	2	1	25	0	00100.jpg	1	4	0	0	0	500	894211	7	2	1	26	0	01001.jpg	1	4	0	0	0	400	118441	7	2	1	27	0	01100.jpg	2	2	0	1	1	500	163381	7	2	1	28	0	00010.jpg	3	3	1	0	1	600	47981	7	2	1	29	0	10011.jpg	3	3	1	0	1	700	52051	7	2	1	30	0	10110.jpg	4	4	1	1	1	800	355841	7	2	1	31	0	10111.jpg	4	4	1	1	1	900	83271	7	2	1	32	0	11010.jpg	4	4	1	1	1	1000	80901	7	2	2	33	0	00000.jpg	1	3	0	0	0	900	138621	7	2	2	34	0	01110.jpg	4	1	1	1	0	800	215241	7	2	2	35	0	10011.jpg	3	3	1	0	1	900	73031	7	2	2	36	0	00110.jpg	3	1	1	0	0	800	266581	7	2	2	37	0	01111.jpg	4	1	1	1	0	700	91361	7	2	2	38	0	00111.jpg	3	3	1	0	1	800	186821	7	2	2	39	0	00110.jpg	3	3	1	0	1	900	38951	7	2	2	40	0	11100.jpg	2	2	0	1	1	1000	68771	7	2	2	41	0	00000.jpg	1	1	0	0	1	1100	489531	7	2	2	42	0	11011.jpg	4	4	1	1	1	1200	154521	7	2	2	43	0	00101.jpg	1	1	0	0	1	1300	160021	7	2	2	44	0	10000.jpg	1	4	0	0	0	1200	55451	7	2	2	45	0	11000.jpg	2	2	0	1	1	1300	470531	7	2	2	46	0	01010.jpg	3	3	1	0	1	1400	152991	7	2	2	47	0	11111.jpg	4	2	1	1	0	1300	69921	7	2	2	48	0	00100.jpg	1	1	0	0	1	1400	128391	7	2	2	49	0	11100.jpg	2	2	0	1	1	1500	98621	7	2	2	50	0	01001.jpg	1	1	0	0	1	1600	78761	7	2	2	51	0	10100.jpg	2	2	0	1	1	1700	66991	7	2	2	52	0	11101.jpg	2	2	0	1	1	1800	42701	7	2	2	53	0	10110.jpg	4	4	1	1	1	1900	182371	7	2	2	54	0	01100.jpg	2	2	0	1	1	2000	162991	7	2	2	55	0	11001.jpg	2	2	0	1	1	2100	71511	7	2	2	56	0	10101.jpg	2	2	0	1	1	2200	59781	7	2	2	57	0	01000.jpg	1	1	0	0	1	2300	218991	7	2	2	58	0	11101.jpg	2	2	0	1	1	2400	29351	7	2	2	59	0	01000.jpg	1	1	0	0	1	2500	61311	7	2	2	60	0	01100.jpg	2	2	0	1	1	2600	84951	7	2	2	61	0	11110.jpg	4	2	1	1	0	2500	83231	7	2	2	62	0	10011.jpg	3	3	1	0	1	2600	223421	7	2	2	63	0	00011.jpg	3	3	1	0	1	2700	39691	7	2	2	64	0	00101.jpg	1	1	0	0	1	2800	65571	7	2	3	65	0	00101.jpg	1	1	0	0	1	2900	51101	7	2	3	66	0	11010.jpg	4	4	1	1	1	3000	98991	7	2	3	67	0	11000.jpg	2	2	0	1	1	3100	166391	7	2	3	68	0	10010.jpg	3	3	1	0	1	3200	82791	7	2	3	69	0	10000.jpg	1	4	0	0	0	3100	261791	7	2	3	70	0	01010.jpg	3	3	1	0	1	3200	98441	7	2	3	71	0	11000.jpg	2	2	0	1	1	3300	71411	7	2	3	72	0	10010.jpg	3	3	1	0	1	3400	48551	7	2	3	73	0	10001.jpg	1	1	0	0	1	3500	173271	7	2	3	74	0	01101.jpg	2	2	0	1	1	3600	45621	7	2	3	75	0	11110.jpg	4	4	1	1	1	3700	355811	7	2	3	76	0	01001.jpg	1	1	0	0	1	3800	110301	7	2	3	77	0	01110.jpg	4	4	1	1	1	3900	66051	7	2	3	78	0	11011.jpg	4	4	1	1	1	4000	45401	7	2	3	79	0	00000.jpg	1	3	0	0	0	3900	208381	7	2	3	80	0	11100.jpg	2	2	0	1	1	4000	30851	7	2	3	81	0	01011.jpg	3	3	1	0	1	4100	86341	7	2	3	82	0	00010.jpg	3	3	1	0	1	4200	45691	7	2	3	83	0	00110.jpg	3	3	1	0	1	4300	62441	7	2	3	84	0	10001.jpg	1	1	0	0	1	4400	146511	7	2	3	85	0	01011.jpg	3	3	1	0	1	4500	53661	7	2	3	86	0	01110.jpg	4	4	1	1	1	4600	49381	7	2	3	87	0	00010.jpg	3	3	1	0	1	4700	31721	7	2	3	88	0	00011.jpg	3	3	1	0	1	4800	34071	7	2	3	89	0	11001.jpg	2	2	0	1	1	4900	126251	7	2	3	90	0	11011.jpg	4	4	1	1	1	5000	57931	7	2	3	91	0	00111.jpg	3	3	1	0	1	5100	212881	7	2	3	92	0	01101.jpg	2	2	0	1	1	5200	74541	7	2	3	93	0	11111.jpg	4	2	1	1	0	5100	36361	7	2	3	94	0	11101.jpg	2	2	0	1	1	5200	42431	7	2	3	95	0	10000.jpg	1	1	0	0	1	5300	99921	7	2	3	96	0	00001.jpg	1	3	0	0	0	5200	104261	7	2	0	97	1	10101pt.jpg	1	3	0	0	0	5200	104261	7	2	0	98	1	11111pt.jpg	1	3	0	0	0	5200	104261	7	2	0	99	1	01000pt.jpg	1	3	0	0	1	5200	104261	7	2	0	100	1	00101pt.jpg	1	3	0	0	1	5200	104261	7	2	0	101	1	00111pt.jpg	1	3	0	0	0	5200	104261	7	2	0	102	1	01010pt.jpg	1	3	0	0	0	5200	104261	7	2	0	103	1	11011pt.jpg	1	3	0	0	0	5200	104261	7	2	0	104	1	11110pt.jpg	1	3	0	0	1	5200	104261	7	3	1	1	0	00101.jpg	1	1	0	0	1	100	677961	7	3	1	2	0	00010.jpg	1	4	0	0	0	0	799171	7	3	1	3	0	11101.jpg	2	3	0	1	0	-100	369521	7	3	1	4	0	10010.jpg	1	4	0	0	0	-200	507381	7	3	1	5	0	11110.jpg	2	2	0	1	1	-100	146691	7	3	1	6	0	10100.jpg	1	2	0	0	0	-200	80911	7	3	1	7	0	01001.jpg	1	1	0	0	1	-100	226001	7	3	1	8	0	01011.jpg	3	1	1	0	0	-200	98731	7	3	1	9	0	01001.jpg	1	4	0	0	0	-300	265261	7	3	1	10	0	00101.jpg	1	1	0	0	1	-200	337931	7	3	1	11	0	10001.jpg	1	4	0	0	0	-300	373531	7	3	1	12	0	11110.jpg	2	2	0	1	1	-200	627721	7	3	1	13	0	01000.jpg	1	1	0	0	1	-100	105891	7	3	1	14	0	11100.jpg	2	2	0	1	1	0	44051	7	3	1	15	0	10101.jpg	2	2	0	1	1	100	136551	7	3	1	16	0	00111.jpg	3	3	1	0	1	200	198941	7	3	1	17	0	01100.jpg	2	2	0	1	1	300	58661	7	3	1	18	0	00110.jpg	1	3	0	0	0	200	78961	7	3	1	19	0	11000.jpg	1	2	0	0	0	100	532371	7	3	1	20	0	11011.jpg	4	4	1	1	1	200	151801	7	3	1	21	0	00011.jpg	3	1	1	0	0	100	198351	7	3	1	22	0	01101.jpg	2	2	0	1	1	200	202101	7	3	1	23	0	10000.jpg	1	4	0	0	0	100	94741	7	3	1	24	0	10101.jpg	2	2	0	1	1	200	157921	7	3	1	25	0	00111.jpg	3	3	1	0	1	300	79521	7	3	1	26	0	11111.jpg	4	2	1	1	0	200	69561	7	3	1	27	0	10111.jpg	4	4	1	1	1	300	190841	7	3	1	28	0	11110.jpg	2	2	0	1	1	400	92171	7	3	1	29	0	10110.jpg	2	1	0	1	0	300	143611	7	3	1	30	0	00111.jpg	3	1	1	0	0	200	187221	7	3	1	31	0	11100.jpg	2	2	0	1	1	300	58711	7	3	1	32	0	11001.jpg	2	2	0	1	1	400	40191	7	3	2	33	0	00011.jpg	3	1	1	0	0	300	29081	7	3	2	34	0	01100.jpg	2	2	0	1	1	400	50951	7	3	2	35	0	00010.jpg	1	1	0	0	1	500	54281	7	3	2	36	0	01110.jpg	2	4	0	1	0	400	118841	7	3	2	37	0	01101.jpg	2	2	0	1	1	500	133141	7	3	2	38	0	00101.jpg	1	4	0	0	0	400	99661	7	3	2	39	0	10110.jpg	2	4	0	1	0	300	212071	7	3	2	40	0	00100.jpg	1	4	0	0	0	200	92391	7	3	2	41	0	10111.jpg	4	4	1	1	1	300	119421	7	3	2	42	0	11010.jpg	2	3	0	1	0	200	55361	7	3	2	43	0	01010.jpg	1	1	0	0	1	300	58271	7	3	2	44	0	10111.jpg	4	3	1	1	0	200	53631	7	3	2	45	0	00000.jpg	1	1	0	0	1	300	106201	7	3	2	46	0	11001.jpg	2	2	0	1	1	400	40361	7	3	2	47	0	11101.jpg	2	2	0	1	1	500	28591	7	3	2	48	0	01111.jpg	4	1	1	1	0	400	26821	7	3	2	49	0	00100.jpg	1	1	0	0	1	500	66771	7	3	2	50	0	10000.jpg	1	3	0	0	0	400	91871	7	3	2	51	0	11010.jpg	2	3	0	1	0	300	96191	7	3	2	52	0	10101.jpg	2	2	0	1	1	400	61961	7	3	2	53	0	10011.jpg	3	1	1	0	0	300	305881	7	3	2	54	0	10001.jpg	1	1	0	0	1	400	294691	7	3	2	55	0	11011.jpg	4	4	1	1	1	500	339471	7	3	2	56	0	11100.jpg	2	2	0	1	1	600	43881	7	3	2	57	0	10010.jpg	1	3	0	0	0	500	379981	7	3	2	58	0	00000.jpg	1	1	0	0	1	600	125431	7	3	2	59	0	01000.jpg	1	1	0	0	1	700	52731	7	3	2	60	0	10000.jpg	1	3	0	0	0	600	208081	7	3	2	61	0	01111.jpg	4	4	1	1	1	700	119751	7	3	2	62	0	10110.jpg	2	4	0	1	0	600	184781	7	3	2	63	0	00001.jpg	1	1	0	0	1	700	458581	7	3	2	64	0	01000.jpg	1	1	0	0	1	800	289411	7	3	3	65	0	11011.jpg	4	4	1	1	1	900	71691	7	3	3	66	0	01111.jpg	4	4	1	1	1	1000	56901	7	3	3	67	0	11101.jpg	2	2	0	1	1	1100	96701	7	3	3	68	0	00100.jpg	1	1	0	0	1	1200	59251	7	3	3	69	0	11000.jpg	1	2	0	0	0	1100	66001	7	3	3	70	0	10011.jpg	3	3	1	0	1	1200	116321	7	3	3	71	0	11000.jpg	1	1	0	0	1	1300	45921	7	3	3	72	0	10011.jpg	3	3	1	0	1	1400	23291	7	3	3	73	0	01011.jpg	3	1	1	0	0	1300	193571	7	3	3	74	0	11001.jpg	2	2	0	1	1	1400	27681	7	3	3	75	0	00011.jpg	3	3	1	0	1	1500	46481	7	3	3	76	0	10100.jpg	1	2	0	0	0	1400	63691	7	3	3	77	0	00000.jpg	1	1	0	0	1	1500	20651	7	3	3	78	0	00010.jpg	1	3	0	0	0	1400	18561	7	3	3	79	0	10100.jpg	1	2	0	0	0	1300	160621	7	3	3	80	0	11010.jpg	2	4	0	1	0	1200	57151	7	3	3	81	0	01011.jpg	3	3	1	0	1	1300	185921	7	3	3	82	0	01010.jpg	1	2	0	0	0	1200	56901	7	3	3	83	0	01010.jpg	1	1	0	0	1	1300	22701	7	3	3	84	0	11111.jpg	4	2	1	1	0	1200	85241	7	3	3	85	0	01100.jpg	2	2	0	1	1	1300	77571	7	3	3	86	0	01001.jpg	1	2	0	0	0	1200	34251	7	3	3	87	0	01110.jpg	2	4	0	1	0	1100	118001	7	3	3	88	0	00001.jpg	1	3	0	0	0	1000	105991	7	3	3	89	0	00001.jpg	1	1	0	0	1	1100	32971	7	3	3	90	0	01101.jpg	2	2	0	1	1	1200	75811	7	3	3	91	0	01110.jpg	2	4	0	1	0	1100	186071	7	3	3	92	0	11111.jpg	4	2	1	1	0	1000	69591	7	3	3	93	0	00110.jpg	1	1	0	0	1	1100	84571	7	3	3	94	0	10010.jpg	1	3	0	0	0	1000	47831	7	3	3	95	0	10001.jpg	1	3	0	0	0	900	221751	7	3	3	96	0	00110.jpg	1	2	0	0	0	800	92971	7	3	0	97	1	01000pt.jpg	1	2	0	0	1	800	92971	7	3	0	98	1	00111pt.jpg	1	2	0	0	0	800	92971	7	3	0	99	1	00101pt.jpg	1	2	0	0	0	800	92971	7	3	0	100	1	10101pt.jpg	1	2	0	0	0	800	92971	7	3	0	101	1	11111pt.jpg	1	2	0	0	1	800	92971	7	3	0	102	1	01010pt.jpg	1	2	0	0	1	800	92971	7	3	0	103	1	11110pt.jpg	1	2	0	0	0	800	92971	7	3	0	104	1	11011pt.jpg	1	2	0	0	0	800	92971	8	1	1	1	0	00010.jpg	2	3	0	1	0	-100	394721	8	1	1	2	0	01011.jpg	2	2	0	1	1	0	210321	8	1	1	3	0	01001.jpg	1	1	0	0	1	100	77751	8	1	1	4	0	11101.jpg	3	4	1	0	0	0	138961	8	1	1	5	0	11110.jpg	4	4	1	1	1	100	111091	8	1	1	6	0	01101.jpg	1	2	0	0	0	0	154181	8	1	1	7	0	01000.jpg	1	1	0	0	1	100	70341	8	1	1	8	0	10011.jpg	2	4	0	1	0	0	168501	8	1	1	9	0	10100.jpg	3	1	1	0	0	-100	367601	8	1	1	10	0	01010.jpg	2	2	0	1	1	0	102911	8	1	1	11	0	11001.jpg	1	1	0	0	1	100	109851	8	1	1	12	0	00101.jpg	1	2	0	0	0	0	177621	8	1	1	13	0	10010.jpg	2	4	0	1	0	-100	100051	8	1	1	14	0	11001.jpg	1	1	0	0	1	0	65721	8	1	1	15	0	11001.jpg	1	1	0	0	1	100	75111	8	1	1	16	0	11010.jpg	2	2	0	1	1	200	66761	8	1	1	17	0	10010.jpg	2	2	0	1	1	300	53541	8	1	1	18	0	00000.jpg	1	3	0	0	0	200	122211	8	1	1	19	0	11010.jpg	2	2	0	1	1	300	55091	8	1	1	20	0	00011.jpg	2	2	0	1	1	400	66961	8	1	1	21	0	10111.jpg	4	4	1	1	1	500	74631	8	1	1	22	0	11100.jpg	3	3	1	0	1	600	60581	8	1	1	23	0	11100.jpg	3	3	1	0	1	700	23551	8	1	1	24	0	00100.jpg	1	3	0	0	0	600	48521	8	1	1	25	0	00110.jpg	2	3	0	1	0	500	296921	8	1	1	26	0	00100.jpg	1	1	0	0	1	600	244651	8	1	1	27	0	01111.jpg	2	4	0	1	0	500	122951	8	1	1	28	0	01110.jpg	2	2	0	1	1	600	62041	8	1	1	29	0	01100.jpg	1	1	0	0	1	700	68861	8	1	1	30	0	00100.jpg	1	1	0	0	1	800	91221	8	1	1	31	0	10000.jpg	1	3	0	0	0	700	53591	8	1	1	32	0	10101.jpg	3	1	1	0	0	600	150731	8	1	2	33	0	01011.jpg	2	2	0	1	1	700	41911	8	1	2	34	0	00001.jpg	1	1	0	0	1	800	49841	8	1	2	35	0	11101.jpg	3	3	1	0	1	900	145381	8	1	2	36	0	10100.jpg	3	3	1	0	1	1000	283021	8	1	2	37	0	11111.jpg	4	4	1	1	1	1100	71881	8	1	2	38	0	00101.jpg	1	1	0	0	1	1200	62291	8	1	2	39	0	00111.jpg	2	2	0	1	1	1300	50041	8	1	2	40	0	00111.jpg	2	2	0	1	1	1400	55261	8	1	2	41	0	10110.jpg	4	4	1	1	1	1500	86811	8	1	2	42	0	00000.jpg	1	1	0	0	1	1600	74531	8	1	2	43	0	11110.jpg	4	3	1	1	0	1500	143651	8	1	2	44	0	01001.jpg	1	1	0	0	1	1600	38711	8	1	2	45	0	10100.jpg	3	3	1	0	1	1700	64921	8	1	2	46	0	10001.jpg	1	1	0	0	1	1800	117711	8	1	2	47	0	00001.jpg	1	1	0	0	1	1900	20451	8	1	2	48	0	00110.jpg	2	2	0	1	1	2000	223081	8	1	2	49	0	11111.jpg	4	4	1	1	1	2100	57531	8	1	2	50	0	00011.jpg	2	2	0	1	1	2200	46031	8	1	2	51	0	01111.jpg	2	2	0	1	1	2300	50101	8	1	2	52	0	01101.jpg	1	1	0	0	1	2400	55811	8	1	2	53	0	10111.jpg	4	4	1	1	1	2500	72851	8	1	2	54	0	11100.jpg	3	1	1	0	0	2400	131541	8	1	2	55	0	00111.jpg	2	2	0	1	1	2500	53661	8	1	2	56	0	10101.jpg	3	1	1	0	0	2400	49751	8	1	2	57	0	01110.jpg	2	2	0	1	1	2500	166091	8	1	2	58	0	10011.jpg	2	4	0	1	0	2400	82091	8	1	2	59	0	01011.jpg	2	2	0	1	1	2500	20021	8	1	2	60	0	11111.jpg	4	2	1	1	0	2400	48661	8	1	2	61	0	00011.jpg	2	2	0	1	1	2500	23681	8	1	2	62	0	11101.jpg	3	1	1	0	0	2400	204021	8	1	2	63	0	11000.jpg	1	1	0	0	1	2500	47781	8	1	2	64	0	00110.jpg	2	2	0	1	1	2600	104771	8	1	3	65	0	00010.jpg	2	2	0	1	1	2700	40021	8	1	3	66	0	01101.jpg	1	3	0	0	0	2600	62841	8	1	3	67	0	11000.jpg	1	1	0	0	1	2700	96641	8	1	3	68	0	10101.jpg	3	3	1	0	1	2800	123911	8	1	3	69	0	11110.jpg	4	2	1	1	0	2700	118481	8	1	3	70	0	01001.jpg	1	1	0	0	1	2800	29591	8	1	3	71	0	10111.jpg	4	4	1	1	1	2900	52091	8	1	3	72	0	10110.jpg	4	4	1	1	1	3000	51531	8	1	3	73	0	11011.jpg	2	2	0	1	1	3100	37791	8	1	3	74	0	00101.jpg	1	3	0	0	0	3000	71971	8	1	3	75	0	00001.jpg	1	1	0	0	1	3100	145901	8	1	3	76	0	01000.jpg	1	1	0	0	1	3200	27191	8	1	3	77	0	11011.jpg	2	2	0	1	1	3300	31391	8	1	3	78	0	01110.jpg	2	2	0	1	1	3400	34541	8	1	3	79	0	10010.jpg	2	4	0	1	0	3300	43321	8	1	3	80	0	10110.jpg	4	4	1	1	1	3400	118641	8	1	3	81	0	10001.jpg	1	3	0	0	0	3300	68621	8	1	3	82	0	10000.jpg	1	1	0	0	1	3400	39951	8	1	3	83	0	01000.jpg	1	1	0	0	1	3500	17491	8	1	3	84	0	10001.jpg	1	1	0	0	1	3600	68721	8	1	3	85	0	10000.jpg	1	1	0	0	1	3700	52861	8	1	3	86	0	11000.jpg	1	1	0	0	1	3800	32771	8	1	3	87	0	11011.jpg	2	2	0	1	1	3900	25391	8	1	3	88	0	00010.jpg	2	2	0	1	1	4000	24481	8	1	3	89	0	01100.jpg	1	1	0	0	1	4100	43891	8	1	3	90	0	00000.jpg	1	1	0	0	1	4200	30711	8	1	3	91	0	01111.jpg	2	2	0	1	1	4300	58131	8	1	3	92	0	01010.jpg	2	2	0	1	1	4400	19581	8	1	3	93	0	11010.jpg	2	4	0	1	0	4300	111611	8	1	3	94	0	10011.jpg	2	4	0	1	0	4200	102121	8	1	3	95	0	01100.jpg	1	1	0	0	1	4300	27151	8	1	3	96	0	01010.jpg	2	2	0	1	1	4400	42891	8	1	0	97	1	00101pt.jpg	2	1	0	1	1	4400	161791	8	1	0	98	1	00111pt.jpg	2	2	0	1	1	4400	206261	8	1	0	99	1	01010pt.jpg	2	3	0	1	0	4400	55841	8	1	0	100	1	11110pt.jpg	2	3	0	1	0	4400	129181	8	1	0	101	1	10101pt.jpg	2	1	0	1	0	4400	186001	8	1	0	102	1	11111pt.jpg	2	2	0	1	0	4400	169901	8	1	0	103	1	01000pt.jpg	2	1	0	1	1	4400	52441	8	1	0	104	1	11011pt.jpg	2	4	0	1	0	4400	133771	8	2	1	1	0	01010.jpg	3	2	1	0	0	-100	142641	8	2	1	2	0	11110.jpg	4	1	1	1	0	-200	169031	8	2	1	3	0	11010.jpg	4	3	1	1	0	-300	45381	8	2	1	4	0	10110.jpg	4	4	1	1	1	-200	109081	8	2	1	5	0	11111.jpg	4	4	1	1	1	-100	58471	8	2	1	6	0	11111.jpg	4	4	1	1	1	0	40541	8	2	1	7	0	01011.jpg	3	2	1	0	0	-100	41071	8	2	1	8	0	10100.jpg	2	3	0	1	0	-200	310231	8	2	1	9	0	11111.jpg	4	4	1	1	1	-100	75771	8	2	1	10	0	01111.jpg	4	3	1	1	0	-200	130331	8	2	1	11	0	00000.jpg	1	2	0	0	0	-300	70141	8	2	1	12	0	11001.jpg	2	3	0	1	0	-400	150551	8	2	1	13	0	10111.jpg	4	4	1	1	1	-300	34861	8	2	1	14	0	11101.jpg	2	2	0	1	1	-200	77621	8	2	1	15	0	01100.jpg	2	2	0	1	1	-100	42051	8	2	1	16	0	11110.jpg	4	4	1	1	1	0	76281	8	2	1	17	0	01001.jpg	1	2	0	0	0	-100	41081	8	2	1	18	0	01010.jpg	3	4	1	0	0	-200	231991	8	2	1	19	0	11010.jpg	4	3	1	1	0	-300	50821	8	2	1	20	0	11010.jpg	4	4	1	1	1	-200	17091	8	2	1	21	0	00110.jpg	3	4	1	0	0	-300	121201	8	2	1	22	0	10001.jpg	1	1	0	0	1	-200	92531	8	2	1	23	0	00001.jpg	1	1	0	0	1	-100	78751	8	2	1	24	0	10111.jpg	4	3	1	1	0	-200	78651	8	2	1	25	0	01101.jpg	2	2	0	1	1	-100	35901	8	2	1	26	0	00100.jpg	1	1	0	0	1	0	25991	8	2	1	27	0	10110.jpg	4	4	1	1	1	100	2289