condition,subject,session,cycle,trial,test,stimulus,category,response,dangerous,nutricious,correct,cumulative,RT,motivation,competence,communication,complement,AccuracyP,Accuracy
Dyads,31,1,1,1,0,11001.jpg 1,1,3,0,0,0,-100,13475,1,1,1.5,1,0.7038650665193481,0
Dyads,31,1,1,2,0,00000.jpg 1,1,1,0,0,1,0,16153,1,1,1.5,1,0.8040442511926555,1
Dyads,31,1,1,3,0,10101.jpg 1,3,3,1,0,1,100,7515,1,1,1.5,1,0.6860091957239828,1
Dyads,31,1,1,4,0,01011.jpg 1,2,2,0,1,1,200,3768,1,1,1.5,1,0.836405357886875,1
Dyads,31,1,1,5,0,11011.jpg 1,2,4,0,1,0,100,7377,1,1,1.5,1,0.5829663400922696,0
Dyads,31,1,1,6,0,00011.jpg 1,2,2,0,1,1,200,9747,1,1,1.5,1,0.7982505383646951,1
Dyads,31,1,1,7,0,11111.jpg 1,4,2,1,1,0,100,12758,1,1,1.5,1,0.7943450766065002,0
Dyads,31,1,1,8,0,10000.jpg 1,1,3,0,0,0,0,25646,1,1,1.5,1,0.5805665501914966,0
Dyads,31,1,1,9,0,01001.jpg 1,1,1,0,0,1,100,3109,1,1,1.5,1,0.8450913485081719,1
Dyads,31,1,1,10,0,00000.jpg 1,1,1,0,0,1,200,10906,1,1,1.5,1,0.8040442511926555,1
Dyads,31,1,1,11,0,11011.jpg 1,2,2,0,1,1,300,30238,1,1,1.5,1,0.5829663400922696,1
Dyads,31,1,1,12,0,11111.jpg 1,4,4,1,1,1,400,6421,1,1,1.5,1,0.7943450766065002,1
Dyads,31,1,1,13,0,10011.jpg 1,2,2,0,1,1,500,4029,1,1,1.5,1,0.7173754893588113,1
Dyads,31,1,1,14,0,00111.jpg 1,2,2,0,1,1,600,52619,1,1,1.5,1,0.6769648595951955,1
Dyads,31,1,1,15,0,10000.jpg 1,1,1,0,0,1,700,8004,1,1,1.5,1,0.5805665501914966,1
Dyads,31,1,1,16,0,00110.jpg 1,2,2,0,1,1,800,8948,1,1,1.5,1,0.6534308234031319,1
Dyads,31,1,1,17,0,01001.jpg 1,1,1,0,0,1,900,34334,1,1,1.5,1,0.8450913485081719,1
Dyads,31,1,1,18,0,10101.jpg 1,3,3,1,0,1,1000,8673,1,1,1.5,1,0.6860091957239828,1
Dyads,31,1,1,19,0,01111.jpg 1,2,2,0,1,1,1100,22833,1,1,1.5,1,0.7460819012934391,1
Dyads,31,1,1,20,0,10111.jpg 1,4,4,1,1,1,1200,5943,1,1,1.5,1,0.8031465052495329,1
Dyads,31,1,1,21,0,01011.jpg 1,2,2,0,1,1,1300,10305,1,1,1.5,1,0.836405357886875,1
Dyads,31,1,1,22,0,00001.jpg 1,1,1,0,0,1,1400,9030,1,1,1.5,1,0.7988394299436935,1
Dyads,31,1,1,23,0,01111.jpg 1,2,2,0,1,1,1500,11110,1,1,1.5,1,0.7460819012934391,1
Dyads,31,1,1,24,0,01101.jpg 1,1,1,0,0,1,1600,22177,1,1,1.5,1,0.7029349220328751,1
Dyads,31,1,1,25,0,00010.jpg 1,2,2,0,1,1,1700,16332,1,1,1.5,1,0.7828388213311662,1
Dyads,31,1,1,26,0,10100.jpg 1,3,3,1,0,1,1800,5319,1,1,1.5,1,0.7553074778584887,1
Dyads,31,1,1,27,0,11101.jpg 1,3,3,1,0,1,1900,6723,1,1,1.5,1,0.7384328326409983,1
Dyads,31,1,1,28,0,10010.jpg 1,2,4,0,1,0,1800,12768,1,1,1.5,1,0.7053878612672222,0
Dyads,31,1,1,29,0,10110.jpg 1,4,4,1,1,1,1900,7259,1,1,1.5,1,0.7118544137507302,1
Dyads,31,1,1,30,0,00101.jpg 1,1,3,0,0,0,1800,44840,1,1,1.5,1,0.6895403656396324,0
Dyads,31,1,1,31,0,10001.jpg 1,1,3,0,0,0,1700,13414,1,1,1.5,1,0.6420277337720864,0
Dyads,31,1,1,32,0,10010.jpg 1,2,2,0,1,1,1800,42877,1,1,1.5,1,0.7053878612672222,1
Dyads,31,2,1,1,0,01010.jpg 2,3,2,1,0,0,-100,23571,1,1,1.5,1,0.5886507420834328,0
Dyads,31,2,1,2,0,00110.jpg 2,3,2,1,0,0,-200,51062,1,1,1.5,1,0.5000358065234874,0
Dyads,31,2,1,3,0,10110.jpg 2,4,4,1,1,1,-100,16388,1,1,1.5,1,0.6362023883264085,1
Dyads,31,2,1,4,0,11100.jpg 2,2,1,0,1,0,-200,13220,1,1,1.5,1,0.4988300760003074,0
Dyads,31,2,1,5,0,00010.jpg 2,3,3,1,0,1,-100,29532,1,1,1.5,1,0.582155854394,1
Dyads,31,2,1,6,0,11000.jpg 2,2,2,0,1,1,0,34159,1,1,1.5,1,0.5091818443764694,1
Dyads,31,2,1,7,0,11001.jpg 2,2,2,0,1,1,100,15562,1,1,1.5,1,0.6014836303946376,1
Dyads,31,2,1,8,0,11001.jpg 2,2,2,0,1,1,200,5332,1,1,1.5,1,0.6014836303946376,1
Dyads,31,2,1,9,0,01111.jpg 2,4,1,1,1,0,100,20383,1,1,1.5,1,0.5501826613011234,0
Dyads,31,2,1,10,0,10011.jpg 2,3,2,1,0,0,0,108246,1,1,1.5,1,0.7025748641409744,0
Dyads,31,2,1,11,0,01101.jpg 2,2,3,0,1,0,-100,76723,1,1,1.5,1,0.5687935524315667,0
Dyads,31,2,1,12,0,10110.jpg 2,4,2,1,1,0,-200,110135,1,1,1.5,1,0.6362023883264085,0
Dyads,31,2,1,13,0,01000.jpg 2,1,1,0,0,1,-100,10728,1,1,1.5,1,0.594988038302346,1
Dyads,31,2,1,14,0,11010.jpg 2,4,2,1,1,0,-200,12845,1,1,1.5,1,0.4580821914130483,0
Dyads,31,2,1,15,0,00110.jpg 2,3,2,1,0,0,-300,69785,1,1,1.5,1,0.5000358065234874,0
Dyads,31,2,1,16,0,11011.jpg 2,4,2,1,1,0,-400,46210,1,1,1.5,1,0.3940796657720849,0
Dyads,31,2,1,17,0,11101.jpg 2,2,2,0,1,1,-300,16825,1,1,1.5,1,0.6585268626385783,1
Dyads,31,2,1,18,0,01011.jpg 2,3,3,1,0,1,-200,4879,1,1,1.5,1,0.5890485128392411,1
Dyads,31,2,1,19,0,01011.jpg 2,3,3,1,0,1,-100,15302,1,1,1.5,1,0.5890485128392411,1
Dyads,31,2,1,20,0,00001.jpg 2,1,1,0,0,1,0,12475,1,1,1.5,1,0.6864430060777132,1
Dyads,31,2,1,21,0,00101.jpg 2,1,1,0,0,1,100,22497,1,1,1.5,1,0.5772211123655534,1
Dyads,31,2,1,22,0,00011.jpg 2,3,3,1,0,1,200,3238,1,1,1.5,1,0.6923376644528918,1
Dyads,31,2,1,23,0,01000.jpg 2,1,1,0,0,1,300,2222,1,1,1.5,1,0.594988038302346,1
Dyads,31,2,1,24,0,10111.jpg 2,4,4,1,1,1,400,3038,1,1,1.5,1,0.831712135483596,1
Dyads,31,2,1,25,0,00110.jpg 2,3,3,1,0,1,500,4364,1,1,1.5,1,0.5000358065234874,1
Dyads,31,2,1,26,0,00100.jpg 2,1,1,0,0,1,600,5910,1,1,1.5,1,0.5665942787762811,1
Dyads,31,2,1,27,0,10010.jpg 2,3,4,1,0,0,500,7164,1,1,1.5,1,0.44029544390381975,0
Dyads,31,2,1,28,0,10000.jpg 2,1,2,0,0,0,400,79701,1,1,1.5,1,0.4356259441822062,0
Dyads,31,2,1,29,0,11010.jpg 2,4,4,1,1,1,500,8937,1,1,1.5,1,0.4580821914130483,1
Dyads,31,2,1,30,0,10100.jpg 2,2,1,0,1,0,400,8691,1,1,1.5,1,0.6678937041414524,0
Dyads,31,2,1,31,0,11011.jpg 2,4,4,1,1,1,500,23961,1,1,1.5,1,0.3940796657720849,1
Dyads,31,2,1,32,0,11110.jpg 2,4,4,1,1,1,600,51009,1,1,1.5,1,0.6934448037551008,1
Dyads,31,3,1,1,0,01101.jpg 3,2,1,0,1,0,-100,33737,1,1,1.5,1,0.3471542834362862,0
Dyads,31,3,1,2,0,10100.jpg 3,1,3,0,0,0,-200,13180,1,1,1.5,1,0.16291696605286626,0
Dyads,31,3,1,3,0,10100.jpg 3,1,1,0,0,1,-100,4142,1,1,1.5,1,0.16291696605286626,1
Dyads,31,3,1,4,0,00110.jpg 3,1,2,0,0,0,-200,40488,1,1,1.5,1,0.25822942861950987,0
Dyads,31,3,1,5,0,00000.jpg 3,1,2,0,0,0,-300,36548,1,1,1.5,1,0.5266601689415891,0
Dyads,31,3,1,6,0,11000.jpg 3,1,3,0,0,0,-400,14287,1,1,1.5,1,0.4158550323039575,0
Dyads,31,3,1,7,0,11011.jpg 3,4,3,1,1,0,-500,18661,1,1,1.5,1,0.30448068717556825,0
Dyads,31,3,1,8,0,10000.jpg 3,1,1,0,0,1,-400,48134,1,1,1.5,1,0.42108440869803243,1
Dyads,31,3,1,9,0,10010.jpg 3,1,3,0,0,0,-500,18259,1,1,1.5,1,0.18477880948277073,0
Dyads,31,3,1,10,0,00011.jpg 3,3,4,1,0,0,-600,16737,1,1,1.5,1,0.31439481713026257,0
Dyads,31,3,1,11,0,10011.jpg 3,3,3,1,0,1,-500,31539,1,1,1.5,1,0.28340799000231115,1
Dyads,31,3,1,12,0,11111.jpg 3,4,4,1,1,1,-400,23815,1,1,1.5,1,0.5192677209691391,1
Dyads,31,3,1,13,0,01100.jpg 3,2,1,0,1,0,-500,13790,1,1,1.5,1,0.370385816723717,0
Dyads,31,3,1,14,0,01110.jpg 3,2,2,0,1,1,-400,7087,1,1,1.5,1,0.31291426924783633,1
Dyads,31,3,1,15,0,01010.jpg 3,1,1,0,0,1,-300,6333,1,1,1.5,1,0.35728028925111116,1
Dyads,31,3,1,16,0,01110.jpg 3,2,2,0,1,1,-200,3321,1,1,1.5,1,0.31291426924783633,1
Dyads,31,3,1,17,0,01100.jpg 3,2,2,0,1,1,-100,1820,1,1,1.5,1,0.370385816723717,1
Dyads,31,3,1,18,0,01001.jpg 3,1,3,0,0,0,-200,3565,1,1,1.5,1,0.5653477093656111,0
Dyads,31,3,1,19,0,01001.jpg 3,1,1,0,0,1,-100,7582,1,1,1.5,1,0.5653477093656111,1
Dyads,31,3,1,20,0,01000.jpg 3,1,1,0,0,1,0,4017,1,1,1.5,1,0.5252805122051147,1
Dyads,31,3,1,21,0,10011.jpg 3,3,3,1,0,1,100,19873,1,1,1.5,1,0.28340799000231115,1
Dyads,31,3,1,22,0,00101.jpg 3,1,2,0,0,0,0,18536,1,1,1.5,1,0.27701696475732,0
Dyads,31,3,1,23,0,11101.jpg 3,2,4,0,1,0,-100,26715,1,1,1.5,1,0.373777599839875,0
Dyads,31,3,1,24,0,00111.jpg 3,3,1,1,0,0,-200,12694,1,1,1.5,1,0.28205728939179703,0
Dyads,31,3,1,25,0,11011.jpg 3,4,1,1,1,0,-300,13259,1,1,1.5,1,0.30448068717556825,0
Dyads,31,3,1,26,0,11110.jpg 3,2,2,0,1,1,-200,13216,1,1,1.5,1,0.39665171797350035,1
Dyads,31,3,1,27,0,01010.jpg 3,1,1,0,0,1,-100,15816,1,1,1.5,1,0.35728028925111116,1
Dyads,31,3,1,28,0,11101.jpg 3,2,1,0,1,0,-200,27288,1,1,1.5,1,0.373777599839875,0
Dyads,31,3,1,29,0,11100.jpg 3,2,2,0,1,1,-100,61891,1,1,1.5,1,0.44434329001373146,1
Dyads,31,3,1,30,0,10101.jpg 3,2,1,0,1,0,-200,10018,1,1,1.5,1,0.3930566318922825,0
Dyads,31,3,1,31,0,00010.jpg 3,1,1,0,0,1,-100,42770,1,1,1.5,1,0.3558808698061525,1
Dyads,31,3,1,32,0,10101.jpg 3,2,2,0,1,1,0,5539,1,1,1.5,1,0.3930566318922825,1
Dyads,32,1,1,1,0,01010.jpg 1,2,4,0,1,0,-100,27156,3,3.5,2.5,1.5,0.7558005962257012,0
Dyads,32,1,1,2,0,10011.jpg 1,2,3,0,1,0,-200,5453,3,3.5,2.5,1.5,0.6387084345740554,0
Dyads,32,1,1,3,0,01101.jpg 1,1,1,0,0,1,-100,33397,3,3.5,2.5,1.5,0.6223643044525368,1
Dyads,32,1,1,4,0,00100.jpg 1,1,2,0,0,0,-200,21412,3,3.5,2.5,1.5,0.6972658306325086,0
Dyads,32,1,1,5,0,10110.jpg 1,4,3,1,1,0,-300,15765,3,3.5,2.5,1.5,0.6324379881666078,0
Dyads,32,1,1,6,0,10101.jpg 1,3,3,1,0,1,-200,19214,3,3.5,2.5,1.5,0.6034377613374512,1
Dyads,32,1,1,7,0,01011.jpg 1,2,2,0,1,1,-100,7039,3,3.5,2.5,1.5,0.7807434795097093,1
Dyads,32,1,1,8,0,00001.jpg 1,1,1,0,0,1,0,6684,3,3.5,2.5,1.5,0.7344539626259312,1
Dyads,32,1,1,9,0,11101.jpg 1,3,3,1,0,1,100,21299,3,3.5,2.5,1.5,0.6628725333508525,1
Dyads,32,1,1,10,0,01100.jpg 1,1,1,0,0,1,200,12264,3,3.5,2.5,1.5,0.5302192340086005,1
Dyads,32,1,1,11,0,10101.jpg 1,3,3,1,0,1,300,4678,3,3.5,2.5,1.5,0.6034377613374512,1
Dyads,32,1,1,12,0,11001.jpg 1,1,3,0,0,0,200,21052,3,3.5,2.5,1.5,0.6234115711706132,0
Dyads,32,1,1,13,0,11111.jpg 1,4,4,1,1,1,300,14002,3,3.5,2.5,1.5,0.7290090876229209,1
Dyads,32,1,1,14,0,10100.jpg 1,3,3,1,0,1,400,5313,3,3.5,2.5,1.5,0.6825260842454018,1
Dyads,32,1,1,15,0,00011.jpg 1,2,2,0,1,1,500,5830,3,3.5,2.5,1.5,0.7337394088199782,1
Dyads,32,1,1,16,0,11110.jpg 1,4,4,1,1,1,600,8973,3,3.5,2.5,1.5,0.7789737935401798,1
Dyads,32,1,1,17,0,11100.jpg 1,3,3,1,0,1,700,6935,3,3.5,2.5,1.5,0.6117401184344118,1
Dyads,32,1,1,18,0,00010.jpg 1,2,2,0,1,1,800,4433,3,3.5,2.5,1.5,0.7151581441954508,1
Dyads,32,1,1,19,0,00101.jpg 1,1,1,0,0,1,900,30385,3,3.5,2.5,1.5,0.6073660542624755,1
Dyads,32,1,1,20,0,00100.jpg 1,1,1,0,0,1,1000,18594,3,3.5,2.5,1.5,0.6972658306325086,1
Dyads,32,1,1,21,0,01000.jpg 1,1,1,0,0,1,1100,16004,3,3.5,2.5,1.5,0.8667106675725136,1
Dyads,32,1,1,22,0,01000.jpg 1,1,1,0,0,1,1200,3955,3,3.5,2.5,1.5,0.8667106675725136,1
Dyads,32,1,1,23,0,01011.jpg 1,2,2,0,1,1,1300,3526,3,3.5,2.5,1.5,0.7807434795097093,1
Dyads,32,1,1,24,0,10101.jpg 1,3,3,1,0,1,1400,7273,3,3.5,2.5,1.5,0.6034377613374512,1
Dyads,32,1,1,25,0,00000.jpg 1,1,1,0,0,1,1500,7616,3,3.5,2.5,1.5,0.7407841198816474,1
Dyads,32,1,1,26,0,01100.jpg 1,1,1,0,0,1,1600,6216,3,3.5,2.5,1.5,0.5302192340086005,1
Dyads,32,1,1,27,0,01101.jpg 1,1,1,0,0,1,1700,2978,3,3.5,2.5,1.5,0.6223643044525368,1
Dyads,32,1,1,28,0,10000.jpg 1,1,3,0,0,0,1600,29042,3,3.5,2.5,1.5,0.4908465577422038,0
Dyads,32,1,1,29,0,10100.jpg 1,3,3,1,0,1,1700,8568,3,3.5,2.5,1.5,0.6825260842454018,1
Dyads,32,1,1,30,0,00110.jpg 1,2,2,0,1,1,1800,12020,3,3.5,2.5,1.5,0.5676910385643593,1
Dyads,32,1,1,31,0,11100.jpg 1,3,3,1,0,1,1900,5052,3,3.5,2.5,1.5,0.6117401184344118,1
Dyads,32,1,1,32,0,11110.jpg 1,4,4,1,1,1,2000,11563,3,3.5,2.5,1.5,0.7789737935401798,1
Dyads,32,2,1,1,0,10111.jpg 2,4,4,1,1,1,100,13010,3,3.5,2.5,1.5,0.8101753089312493,1
Dyads,32,2,1,2,0,10100.jpg 2,2,3,0,1,0,0,3930,3,3.5,2.5,1.5,0.6346025516310978,0
Dyads,32,2,1,3,0,00010.jpg 2,3,2,1,0,0,-100,4613,3,3.5,2.5,1.5,0.5461108537754742,0
Dyads,32,2,1,4,0,10101.jpg 2,2,3,0,1,0,-200,15958,3,3.5,2.5,1.5,0.586409576558584,0
Dyads,32,2,1,5,0,10110.jpg 2,4,4,1,1,1,-100,11384,3,3.5,2.5,1.5,0.6016292582811634,1
Dyads,32,2,1,6,0,11000.jpg 2,2,1,0,1,0,-200,9737,3,3.5,2.5,1.5,0.47254534140209753,0
Dyads,32,2,1,7,0,00011.jpg 2,3,2,1,0,0,-300,4108,3,3.5,2.5,1.5,0.6602503845338127,0
Dyads,32,2,1,8,0,00111.jpg 2,3,4,1,0,0,-400,23368,3,3.5,2.5,1.5,0.34378709226852594,0
Dyads,32,2,1,9,0,11001.jpg 2,2,3,0,1,0,-500,47937,3,3.5,2.5,1.5,0.5658625548089762,0
Dyads,32,2,1,10,0,10110.jpg 2,4,3,1,1,0,-600,15677,3,3.5,2.5,1.5,0.6016292582811634,0
Dyads,32,2,1,11,0,01001.jpg 2,1,1,0,0,1,-500,8896,3,3.5,2.5,1.5,0.622385341872855,1
Dyads,32,2,1,12,0,00111.jpg 2,3,4,1,0,0,-600,45270,3,3.5,2.5,1.5,0.34378709226852594,0
Dyads,32,2,1,13,0,10001.jpg 2,1,3,0,0,0,-700,17155,3,3.5,2.5,1.5,0.6364770849960065,0
Dyads,32,2,1,14,0,11111.jpg 2,4,4,1,1,1,-600,27389,3,3.5,2.5,1.5,0.7125827698034516,1
Dyads,32,2,1,15,0,11000.jpg 2,2,2,0,1,1,-500,47837,3,3.5,2.5,1.5,0.47254534140209753,1
Dyads,32,2,1,16,0,10111.jpg 2,4,4,1,1,1,-400,24187,3,3.5,2.5,1.5,0.8101753089312493,1
Dyads,32,2,1,17,0,00100.jpg 2,1,1,0,0,1,-300,7156,3,3.5,2.5,1.5,0.5302899865798155,1
Dyads,32,2,1,18,0,01100.jpg 2,2,2,0,1,1,-200,11439,3,3.5,2.5,1.5,0.5854337898926019,1
Dyads,32,2,1,19,0,00011.jpg 2,3,2,1,0,0,-300,36949,3,3.5,2.5,1.5,0.6602503845338127,0
Dyads,32,2,1,20,0,10011.jpg 2,3,3,1,0,1,-200,13343,3,3.5,2.5,1.5,0.6710479731482893,1
Dyads,32,2,1,21,0,01101.jpg 2,2,2,0,1,1,-100,17995,3,3.5,2.5,1.5,0.5325214867365579,1
Dyads,32,2,1,22,0,11101.jpg 2,2,4,0,1,0,-200,8970,3,3.5,2.5,1.5,0.6248241940372032,0
Dyads,32,2,1,23,0,01111.jpg 2,4,2,1,1,0,-300,15389,3,3.5,2.5,1.5,0.5136835917878291,0
Dyads,32,2,1,24,0,11110.jpg 2,4,4,1,1,1,-200,9148,3,3.5,2.5,1.5,0.6614165228113249,1
Dyads,32,2,1,25,0,01011.jpg 2,3,4,1,0,0,-300,14022,3,3.5,2.5,1.5,0.5531416995265135,0
Dyads,32,2,1,26,0,11010.jpg 2,4,3,1,1,0,-400,15973,3,3.5,2.5,1.5,0.4219614920868344,0
Dyads,32,2,1,27,0,10100.jpg 2,2,1,0,1,0,-500,49772,3,3.5,2.5,1.5,0.6346025516310978,0
Dyads,32,2,1,28,0,01101.jpg 2,2,2,0,1,1,-400,19430,3,3.5,2.5,1.5,0.5325214867365579,1
Dyads,32,2,1,29,0,01000.jpg 2,1,2,0,0,0,-500,6221,3,3.5,2.5,1.5,0.5592118456989885,0
Dyads,32,2,1,30,0,11111.jpg 2,4,4,1,1,1,-400,54740,3,3.5,2.5,1.5,0.7125827698034516,1
Dyads,32,2,1,31,0,01010.jpg 2,3,2,1,0,0,-500,33662,3,3.5,2.5,1.5,0.5527355632004399,0
Dyads,32,2,1,32,0,01000.jpg 2,1,2,0,0,0,-600,6003,3,3.5,2.5,1.5,0.5592118456989885,0
Dyads,32,3,1,1,0,00001.jpg 3,1,1,0,0,1,100,23296,3,3.5,2.5,1.5,0.7257734484072778,1
Dyads,32,3,1,2,0,00100.jpg 3,1,3,0,0,0,0,10005,3,3.5,2.5,1.5,0.49229566785483353,0
Dyads,32,3,1,3,0,11110.jpg 3,2,3,0,1,0,-100,4150,3,3.5,2.5,1.5,0.45691960296652234,0
Dyads,32,3,1,4,0,00010.jpg 3,1,2,0,0,0,-200,30927,3,3.5,2.5,1.5,0.4142067731290518,0
Dyads,32,3,1,5,0,01000.jpg 3,1,1,0,0,1,-100,5867,3,3.5,2.5,1.5,0.5861068918385373,1
Dyads,32,3,1,6,0,10110.jpg 3,2,2,0,1,1,0,19289,3,3.5,2.5,1.5,0.3779321201254598,1
Dyads,32,3,1,7,0,11000.jpg 3,1,1,0,0,1,100,9175,3,3.5,2.5,1.5,0.47673521587043727,1
Dyads,32,3,1,8,0,10101.jpg 3,2,3,0,1,0,0,6433,3,3.5,2.5,1.5,0.4531885693767349,0
Dyads,32,3,1,9,0,11101.jpg 3,2,3,0,1,0,-100,18151,3,3.5,2.5,1.5,0.4330645820457342,0
Dyads,32,3,1,10,0,00101.jpg 3,1,1,0,0,1,0,10939,3,3.5,2.5,1.5,0.32901997037570385,1
Dyads,32,3,1,11,0,00010.jpg 3,1,4,0,0,0,-100,32165,3,3.5,2.5,1.5,0.4142067731290518,0
Dyads,32,3,1,12,0,01011.jpg 3,3,1,1,0,0,-200,7383,3,3.5,2.5,1.5,0.3354960967592631,0
Dyads,32,3,1,13,0,10011.jpg 3,3,4,1,0,0,-300,36656,3,3.5,2.5,1.5,0.3360530870166697,0
Dyads,32,3,1,14,0,00111.jpg 3,3,4,1,0,0,-400,24982,3,3.5,2.5,1.5,0.33456862743465837,0
Dyads,32,3,1,15,0,10111.jpg 3,4,4,1,1,1,-300,27384,3,3.5,2.5,1.5,0.42622309403280045,1
Dyads,32,3,1,16,0,11101.jpg 3,2,2,0,1,1,-200,21207,3,3.5,2.5,1.5,0.4330645820457342,1
Dyads,32,3,1,17,0,01110.jpg 3,2,2,0,1,1,-100,33176,3,3.5,2.5,1.5,0.3682239334635168,1
Dyads,32,3,1,18,0,11100.jpg 3,2,2,0,1,1,0,28097,3,3.5,2.5,1.5,0.5057829539197821,1
Dyads,32,3,1,19,0,11010.jpg 3,2,3,0,1,0,-100,27350,3,3.5,2.5,1.5,0.39575098638328066,0
Dyads,32,3,1,20,0,11011.jpg 3,4,2,1,1,0,-200,3985,3,3.5,2.5,1.5,0.3590787120693904,0
Dyads,32,3,1,21,0,11111.jpg 3,4,4,1,1,1,-100,31401,3,3.5,2.5,1.5,0.5802488800105469,1
Dyads,32,3,1,22,0,11010.jpg 3,2,2,0,1,1,0,12297,3,3.5,2.5,1.5,0.39575098638328066,1
Dyads,32,3,1,23,0,11000.jpg 3,1,1,0,0,1,100,11533,3,3.5,2.5,1.5,0.47673521587043727,1
Dyads,32,3,1,24,0,01010.jpg 3,1,1,0,0,1,200,19970,3,3.5,2.5,1.5,0.41568753080395304,1
Dyads,32,3,1,25,0,11101.jpg 3,2,3,0,1,0,100,13147,3,3.5,2.5,1.5,0.4330645820457342,0
Dyads,32,3,1,26,0,10110.jpg 3,2,2,0,1,1,200,18742,3,3.5,2.5,1.5,0.3779321201254598,1
Dyads,32,3,1,27,0,10010.jpg 3,1,2,0,0,0,100,6153,3,3.5,2.5,1.5,0.22485159279341926,0
Dyads,32,3,1,28,0,11000.jpg 3,1,1,0,0,1,200,11235,3,3.5,2.5,1.5,0.47673521587043727,1
Dyads,32,3,1,29,0,10000.jpg 3,1,1,0,0,1,300,5851,3,3.5,2.5,1.5,0.48209833245695477,1
Dyads,32,3,1,30,0,00110.jpg 3,1,2,0,0,0,200,11667,3,3.5,2.5,1.5,0.3082090642888129,0
Dyads,32,3,1,31,0,00011.jpg 3,3,3,1,0,1,300,19784,3,3.5,2.5,1.5,0.3698253192170522,1
Dyads,32,3,1,32,0,00000.jpg 3,1,1,0,0,1,400,9658,3,3.5,2.5,1.5,0.5874486108928757,1
Dyads,33,1,1,1,0,11010.jpg 1,2,2,0,1,1,100,20309,2,2.5,3,3.5,0.6100135304977978,1
Dyads,33,1,1,2,0,10101.jpg 1,3,3,1,0,1,200,11634,2,2.5,3,3.5,0.624062637677799,1
Dyads,33,1,1,3,0,01010.jpg 1,2,2,0,1,1,300,8626,2,2.5,3,3.5,0.77150181499464765,1
Dyads,33,1,1,4,0,00101.jpg 1,1,1,0,0,1,400,15417,2,2.5,3,3.5,0.6279126017867088,1
Dyads,33,1,1,5,0,00001.jpg 1,1,1,0,0,1,500,12657,2,2.5,3,3.5,0.7510756582598375,1
Dyads,33,1,1,6,0,01101.jpg 1,1,2,0,0,0,400,20287,2,2.5,3,3.5,0.6425878530932613,0
Dyads,33,1,1,7,0,10010.jpg 1,2,4,0,1,0,300,20956,2,2.5,3,3.5,0.6452876423438569,0
Dyads,33,1,1,8,0,00000.jpg 1,1,1,0,0,1,400,7102,2,2.5,3,3.5,0.7571406039279509,1
Dyads,33,1,1,9,0,11100.jpg 1,3,3,1,0,1,500,8611,2,2.5,3,3.5,0.6321963832935488,1
Dyads,33,1,1,10,0,10000.jpg 1,1,3,0,0,0,400,3124,2,2.5,3,3.5,0.5125974427785865,0
Dyads,33,1,1,11,0,01001.jpg 1,1,1,0,0,1,500,4198,2,2.5,3,3.5,0.8056376695080889,1
Dyads,33,1,1,12,0,11001.jpg 1,1,4,0,0,0,400,17544,2,2.5,3,3.5,0.6436111514406206,0
Dyads,33,1,1,13,0,00000.jpg 1,1,1,0,0,1,500,5505,2,2.5,3,3.5,0.7571406039279509,1
Dyads,33,1,1,14,0,10101.jpg 1,3,3,1,0,1,600,20144,2,2.5,3,3.5,0.624062637677799,1
Dyads,33,1,1,15,0,01100.jpg 1,1,1,0,0,1,700,17905,2,2.5,3,3.5,0.5518238997337004,1
Dyads,33,1,1,16,0,10100.jpg 1,3,3,1,0,1,800,7334,2,2.5,3,3.5,0.7010752550679304,1
Dyads,33,1,1,17,0,01111.jpg 1,2,1,0,1,0,700,7866,2,2.5,3,3.5,0.6906424415223307,0
Dyads,33,1,1,18,0,11101.jpg 1,3,3,1,0,1,800,7985,2,2.5,3,3.5,0.682035054496466,1
Dyads,33,1,1,19,0,01100.jpg 1,1,2,0,0,0,700,6018,2,2.5,3,3.5,0.5518238997337004,0
Dyads,33,1,1,20,0,01100.jpg 1,1,1,0,0,1,800,10330,2,2.5,3,3.5,0.5518238997337004,1
Dyads,33,1,1,21,0,00100.jpg 1,1,2,0,0,0,700,11230,2,2.5,3,3.5,0.7153130119134556,0
Dyads,33,1,1,22,0,00011.jpg 1,2,3,0,1,0,600,14196,2,2.5,3,3.5,0.7503906307122681,0
Dyads,33,1,1,23,0,10011.jpg 1,2,3,0,1,0,500,3603,2,2.5,3,3.5,0.6585369304468546,0
Dyads,33,1,1,24,0,11100.jpg 1,3,4,1,0,0,400,4645,2,2.5,3,3.5,0.6321963832935488,0
Dyads,33,1,1,25,0,00011.jpg 1,2,1,0,1,0,300,5915,2,2.5,3,3.5,0.7503906307122681,0
Dyads,33,1,1,26,0,00101.jpg 1,1,1,0,0,1,400,9991,2,2.5,3,3.5,0.6279126017867088,1
Dyads,33,1,1,27,0,10100.jpg 1,3,3,1,0,1,500,13152,2,2.5,3,3.5,0.7010752550679304,1
Dyads,33,1,1,28,0,01110.jpg 1,2,2,0,1,1,600,5251,2,2.5,3,3.5,0.7917610768245196,1
Dyads,33,1,1,29,0,00010.jpg 1,2,2,0,1,1,700,6426,2,2.5,3,3.5,0.732547824707539,1
Dyads,33,1,1,30,0,11010.jpg 1,2,3,0,1,0,600,6410,2,2.5,3,3.5,0.6100135304977978,0
Dyads,33,1,1,31,0,10101.jpg 1,3,3,1,0,1,700,16362,2,2.5,3,3.5,0.624062637677799,1
Dyads,33,1,1,32,0,10010.jpg 1,2,2,0,1,1,800,6380,2,2.5,3,3.5,0.6452876423438569,1
Dyads,33,2,1,1,0,00100.jpg 2,1,1,0,0,1,100,12885,2,2.5,3,3.5,0.5453400383786849,1
Dyads,33,2,1,2,0,10110.jpg 2,4,4,1,1,1,200,3706,2,2.5,3,3.5,0.6160485240716379,1
Dyads,33,2,1,3,0,10111.jpg 2,4,4,1,1,1,300,3470,2,2.5,3,3.5,0.8193131461371475,1
Dyads,33,2,1,4,0,01010.jpg 2,3,2,1,0,0,200,4346,2,2.5,3,3.5,0.5676527844699353,0
Dyads,33,2,1,5,0,10100.jpg 2,2,3,0,1,0,100,9166,2,2.5,3,3.5,0.6485255703224747,0
Dyads,33,2,1,6,0,01001.jpg 2,1,1,0,0,1,200,7943,2,2.5,3,3.5,0.6365072369920597,1
Dyads,33,2,1,7,0,10001.jpg 2,1,1,0,0,1,300,7467,2,2.5,3,3.5,0.6503680292324807,1
Dyads,33,2,1,8,0,01110.jpg 2,4,2,1,1,0,200,9840,2,2.5,3,3.5,0.5079160602413078,0
Dyads,33,2,1,9,0,01010.jpg 2,3,2,1,0,0,100,6998,2,2.5,3,3.5,0.5676527844699353,0
Dyads,33,2,1,10,0,01010.jpg 2,3,3,1,0,1,200,2118,2,2.5,3,3.5,0.5676527844699353,1
Dyads,33,2,1,11,0,10011.jpg 2,3,3,1,0,1,300,2283,2,2.5,3,3.5,0.6842731925154306,1
Dyads,33,2,1,12,0,01101.jpg 2,2,2,0,1,1,400,9977,2,2.5,3,3.5,0.5475610417571252,1
Dyads,33,2,1,13,0,00110.jpg 2,3,4,1,0,0,300,5426,2,2.5,3,3.5,0.4785216626233402,0
Dyads,33,2,1,14,0,11101.jpg 2,2,3,0,1,0,200,18097,2,2.5,3,3.5,0.6389077980191756,0
Dyads,33,2,1,15,0,00011.jpg 2,3,1,1,0,0,100,17830,2,2.5,3,3.5,0.6736986237479649,0
Dyads,33,2,1,16,0,11111.jpg 2,4,4,1,1,1,200,7164,2,2.5,3,3.5,0.7248228845198064,1
Dyads,33,2,1,17,0,00110.jpg 2,3,4,1,0,0,100,3951,2,2.5,3,3.5,0.4785216626233402,0
Dyads,33,2,1,18,0,00010.jpg 2,3,4,1,0,0,0,6505,2,2.5,3,3.5,0.5610735686235435,0
Dyads,33,2,1,19,0,11100.jpg 2,2,2,0,1,1,100,22453,2,2.5,3,3.5,0.47731828186351116,1
Dyads,33,2,1,20,0,10101.jpg 2,2,2,0,1,1,200,2931,2,2.5,3,3.5,0.601014394220786,1
Dyads,33,2,1,21,0,10000.jpg 2,1,1,0,0,1,300,3687,2,2.5,3,3.5,0.4145850476847131,1
Dyads,33,2,1,22,0,00111.jpg 2,3,3,1,0,1,400,10140,2,2.5,3,3.5,0.3575734923149026,1
Dyads,33,2,1,23,0,10010.jpg 2,3,4,1,0,0,300,8360,2,2.5,3,3.5,0.41919653068197915,0
Dyads,33,2,1,24,0,10110.jpg 2,4,4,1,1,1,400,5017,2,2.5,3,3.5,0.6160485240716379,1
Dyads,33,2,1,25,0,11010.jpg 2,4,3,1,1,0,300,3298,2,2.5,3,3.5,0.43679610858552703,0
Dyads,33,2,1,26,0,00101.jpg 2,1,1,0,0,1,400,20748,2,2.5,3,3.5,0.5560797047019064,1
Dyads,33,2,1,27,0,11011.jpg 2,4,3,1,1,0,300,4383,2,2.5,3,3.5,0.37371667485994586,0
Dyads,33,2,1,28,0,01011.jpg 2,3,4,1,0,0,200,4015,2,2.5,3,3.5,0.5680559606410107,0
Dyads,33,2,1,29,0,01101.jpg 2,2,1,0,1,0,100,7272,2,2.5,3,3.5,0.5475610417571252,0
Dyads,33,2,1,30,0,10100.jpg 2,2,2,0,1,1,200,6461,2,2.5,3,3.5,0.6485255703224747,1
Dyads,33,2,1,31,0,11001.jpg 2,2,1,0,1,0,100,13563,2,2.5,3,3.5,0.5806741043854253,0
Dyads,33,2,1,32,0,11000.jpg 2,2,2,0,1,1,200,4382,2,2.5,3,3.5,0.48765801456961416,1
Dyads,33,3,1,1,0,00101.jpg 3,1,1,0,0,1,100,9268,2,2.5,3,3.5,0.33170604708547446,1
Dyads,33,3,1,2,0,10110.jpg 3,2,4,0,1,0,0,4178,2,2.5,3,3.5,0.38079089370197167,0
Dyads,33,3,1,3,0,01111.jpg 3,4,2,1,1,0,-100,6084,2,2.5,3,3.5,0.34896454152790585,0
Dyads,33,3,1,4,0,10101.jpg 3,2,2,0,1,1,0,7624,2,2.5,3,3.5,0.45619913061525497,1
Dyads,33,3,1,5,0,00000.jpg 3,1,1,0,0,1,100,2912,2,2.5,3,3.5,0.5903880947054142,1
Dyads,33,3,1,6,0,01011.jpg 3,3,4,1,0,0,0,8379,2,2.5,3,3.5,0.33820839440405015,0
Dyads,33,3,1,7,0,01101.jpg 3,2,1,0,1,0,-100,7797,2,2.5,3,3.5,0.40787826877125266,0
Dyads,33,3,1,8,0,00010.jpg 3,1,3,0,0,0,-200,5726,2,2.5,3,3.5,0.4171559321975161,0
Dyads,33,3,1,9,0,01110.jpg 3,2,4,0,1,0,-300,12176,2,2.5,3,3.5,0.37105307472148746,0
Dyads,33,3,1,10,0,00110.jpg 3,1,2,0,0,0,-400,4331,2,2.5,3,3.5,0.31080394150555796,0
Dyads,33,3,1,11,0,00111.jpg 3,3,2,1,0,0,-500,11310,2,2.5,3,3.5,0.33727723274878413,0
Dyads,33,3,1,12,0,00011.jpg 3,3,3,1,0,1,-400,3529,2,2.5,3,3.5,0.37265950674613346,1
Dyads,33,3,1,13,0,01101.jpg 3,2,1,0,1,0,-500,8111,2,2.5,3,3.5,0.40787826877125266,0
Dyads,33,3,1,14,0,10000.jpg 3,1,1,0,0,1,-400,15562,2,2.5,3,3.5,0.4851305570637278,1
Dyads,33,3,1,15,0,10010.jpg 3,1,4,0,0,0,-500,13189,2,2.5,3,3.5,0.2269749260904767,0
Dyads,33,3,1,16,0,10110.jpg 3,2,4,0,1,0,-600,2997,2,2.5,3,3.5,0.38079089370197167,0
Dyads,33,3,1,17,0,00001.jpg 3,1,1,0,0,1,-500,10694,2,2.5,3,3.5,0.7281833854431075,1
Dyads,33,3,1,18,0,01000.jpg 3,1,1,0,0,1,-400,2492,2,2.5,3,3.5,0.5890492479138291,1
Dyads,33,3,1,19,0,00100.jpg 3,1,2,0,0,0,-500,3585,2,2.5,3,3.5,0.49533068767871785,0
Dyads,33,3,1,20,0,00000.jpg 3,1,1,0,0,1,-400,1114,2,2.5,3,3.5,0.5903880947054142,1
Dyads,33,3,1,21,0,11111.jpg 3,4,4,1,1,1,-300,9815,2,2.5,3,3.5,0.5832032660259265,1
Dyads,33,3,1,22,0,00011.jpg 3,3,1,1,0,0,-400,8533,2,2.5,3,3.5,0.37265950674613346,0
Dyads,33,3,1,23,0,00001.jpg 3,1,1,0,0,1,-300,1962,2,2.5,3,3.5,0.7281833854431075,1
Dyads,33,3,1,24,0,00101.jpg 3,1,1,0,0,1,-200,14613,2,2.5,3,3.5,0.33170604708547446,1
Dyads,33,3,1,25,0,11100.jpg 3,2,2,0,1,1,-100,4804,2,2.5,3,3.5,0.5088177913862033,1
Dyads,33,3,1,26,0,10010.jpg 3,1,1,0,0,1,0,8214,2,2.5,3,3.5,0.2269749260904767,1
Dyads,33,3,1,27,0,01010.jpg 3,1,1,0,0,1,100,2382,2,2.5,3,3.5,0.4186396982766899,1
Dyads,33,3,1,28,0,01110.jpg 3,2,1,0,1,0,0,3032,2,2.5,3,3.5,0.37105307472148746,0
Dyads,33,3,1,29,0,01010.jpg 3,1,1,0,0,1,100,2655,2,2.5,3,3.5,0.4186396982766899,1
Dyads,33,3,1,30,0,10100.jpg 3,1,2,0,0,0,0,7982,2,2.5,3,3.5,0.20135378936653867,0
Dyads,33,3,1,31,0,01101.jpg 3,2,1,0,1,0,-100,8383,2,2.5,3,3.5,0.40787826877125266,0
Dyads,33,3,1,32,0,01111.jpg 3,4,3,1,1,0,-200,12777,2,2.5,3,3.5,0.34896454152790585,0
Dyads,34,1,1,1,0,01111.jpg 1,2,3,0,1,0,-100,48406,2.5,2.5,1,1.5,0.5724650869230232,0
Dyads,34,1,1,2,0,00101.jpg 1,1,4,0,0,0,-200,19829,2.5,2.5,1,1.5,0.503015846557456,0
Dyads,34,1,1,3,0,11011.jpg 1,2,3,0,1,0,-300,35910,2.5,2.5,1,1.5,0.38913603502076555,0
Dyads,34,1,1,4,0,01000.jpg 1,1,2,0,0,0,-400,68272,2.5,2.5,1,1.5,0.8096893036226048,0
Dyads,34,1,1,5,0,01101.jpg 1,1,2,0,0,0,-500,26749,2.5,2.5,1,1.5,0.5188423896960214,0
Dyads,34,1,1,6,0,10100.jpg 1,3,4,1,0,0,-600,16191,2.5,2.5,1,1.5,0.5844855568146,0
Dyads,34,1,1,7,0,00001.jpg 1,1,1,0,0,1,-500,62568,2.5,2.5,1,1.5,0.6440872773758369,1
Dyads,34,1,1,8,0,01011.jpg 1,2,2,0,1,1,-400,25659,2.5,2.5,1,1.5,0.6996882725453903,1
Dyads,34,1,1,9,0,00000.jpg 1,1,1,0,0,1,-300,8336,2.5,2.5,1,1.5,0.6515495997245451,1
Dyads,34,1,1,10,0,01100.jpg 1,1,1,0,0,1,-200,33867,2.5,2.5,1,1.5,0.4247837234064065,1
Dyads,34,1,1,11,0,11101.jpg 1,3,3,1,0,1,-100,12714,2.5,2.5,1,1.5,0.56265178436132,1
Dyads,34,1,1,12,0,01000.jpg 1,1,1,0,0,1,0,11870,2.5,2.5,1,1.5,0.8096893036226048,1
Dyads,34,1,1,13,0,00011.jpg 1,2,2,0,1,1,100,5995,2.5,2.5,1,1.5,0.643247672402474,1
Dyads,34,1,1,14,0,11001.jpg 1,1,3,0,0,0,0,5341,2.5,2.5,1,1.5,0.5199553067015602,0
Dyads,34,1,1,15,0,00100.jpg 1,1,1,0,0,1,100,24855,2.5,2.5,1,1.5,0.6011169518448465,1
Dyads,34,1,1,16,0,01110.jpg 1,2,2,0,1,1,200,7582,2.5,2.5,1,1.5,0.6951621006672342,1
Dyads,34,1,1,17,0,11110.jpg 1,4,4,1,1,1,300,5383,2.5,2.5,1,1.5,0.6975178292305486,1
Dyads,34,1,1,18,0,00111.jpg 1,2,2,0,1,1,400,3848,2.5,2.5,1,1.5,0.4884896436870304,1
Dyads,34,1,1,19,0,01000.jpg 1,1,1,0,0,1,500,3734,2.5,2.5,1,1.5,0.8096893036226048,1
Dyads,34,1,1,20,0,00010.jpg 1,2,2,0,1,1,600,5577,2.5,2.5,1,1.5,0.6216080473648548,1
Dyads,34,1,1,21,0,10100.jpg 1,3,3,1,0,1,700,7217,2.5,2.5,1,1.5,0.5844855568146,1
Dyads,34,1,1,22,0,00010.jpg 1,2,2,0,1,1,800,2538,2.5,2.5,1,1.5,0.6216080473648548,1
Dyads,34,1,1,23,0,00001.jpg 1,1,1,0,0,1,900,6037,2.5,2.5,1,1.5,0.6440872773758369,1
Dyads,34,1,1,24,0,11111.jpg 1,4,4,1,1,1,1000,3180,2.5,2.5,1,1.5,0.6377035039713084,1
Dyads,34,1,1,25,0,11010.jpg 1,2,4,0,1,0,900,5685,2.5,2.5,1,1.5,0.48404551969229526,0
Dyads,34,1,1,26,0,10001.jpg 1,1,3,0,0,0,800,29907,2.5,2.5,1,1.5,0.4497373835402724,0
Dyads,34,1,1,27,0,00100.jpg 1,1,1,0,0,1,900,7814,2.5,2.5,1,1.5,0.6011169518448465,1
Dyads,34,1,1,28,0,10111.jpg 1,4,2,1,1,0,800,44294,2.5,2.5,1,1.5,0.6502571110500384,0
Dyads,34,1,1,29,0,00110.jpg 1,2,2,0,1,1,900,10219,2.5,2.5,1,1.5,0.4621342436113057,1
Dyads,34,1,1,30,0,10110.jpg 1,4,2,1,1,0,800,12483,2.5,2.5,1,1.5,0.5295903169678832,0
Dyads,34,1,1,31,0,11011.jpg 1,2,4,0,1,0,700,15525,2.5,2.5,1,1.5,0.38913603502076555,0
Dyads,34,1,1,32,0,01010.jpg 1,2,2,0,1,1,800,15353,2.5,2.5,1,1.5,0.6694286508301441,1
Dyads,34,2,1,1,0,10011.jpg 2,3,1,1,0,0,-100,57159,2.5,2.5,1,1.5,0.6381519719340993,0
Dyads,34,2,1,2,0,10110.jpg 2,4,3,1,1,0,-200,12363,2.5,2.5,1,1.5,0.566278101593923,0
Dyads,34,2,1,3,0,10101.jpg 2,2,3,0,1,0,-300,16763,2.5,2.5,1,1.5,0.5507164223476092,0
Dyads,34,2,1,4,0,00001.jpg 2,1,1,0,0,1,-200,28837,2.5,2.5,1,1.5,0.6204137587634001,1
Dyads,34,2,1,5,0,11101.jpg 2,2,2,0,1,1,-100,21868,2.5,2.5,1,1.5,0.5901290839454859,1
Dyads,34,2,1,6,0,01000.jpg 2,1,1,0,0,1,0,3402,2.5,2.5,1,1.5,0.5230804428203402,1
Dyads,34,2,1,7,0,01001.jpg 2,1,1,0,0,1,100,1387,2.5,2.5,1,1.5,0.5876135498989622,1
Dyads,34,2,1,8,0,10110.jpg 2,4,4,1,1,1,200,12405,2.5,2.5,1,1.5,0.566278101593923,1
Dyads,34,2,1,9,0,10011.jpg 2,3,3,1,0,1,300,5892,2.5,2.5,1,1.5,0.6381519719340993,1
Dyads,34,2,1,10,0,10001.jpg 2,1,1,0,0,1,400,12272,2.5,2.5,1,1.5,0.6021734739305302,1
Dyads,34,2,1,11,0,11110.jpg 2,4,4,1,1,1,500,3391,2.5,2.5,1,1.5,0.6280911612872859,1
Dyads,34,2,1,12,0,10001.jpg 2,1,1,0,0,1,600,3814,2.5,2.5,1,1.5,0.6021734739305302,1
Dyads,34,2,1,13,0,10100.jpg 2,2,2,0,1,1,700,5000,2.5,2.5,1,1.5,0.6002331542606072,1
Dyads,34,2,1,14,0,10001.jpg 2,1,1,0,0,1,800,2000,2.5,2.5,1,1.5,0.6021734739305302,1
Dyads,34,2,1,15,0,01000.jpg 2,1,1,0,0,1,900,3017,2.5,2.5,1,1.5,0.5230804428203402,1
Dyads,34,2,1,16,0,11111.jpg 2,4,4,1,1,1,1000,2329,2.5,2.5,1,1.5,0.6818712298725317,1
Dyads,34,2,1,17,0,01100.jpg 2,2,2,0,1,1,1100,2332,2.5,2.5,1,1.5,0.5497210866954412,1
Dyads,34,2,1,18,0,11011.jpg 2,4,3,1,1,0,1000,2767,2.5,2.5,1,1.5,0.3268575108575001,0
Dyads,34,2,1,19,0,01110.jpg 2,4,3,1,1,0,900,19887,2.5,2.5,1,1.5,0.45649506304161236,0
Dyads,34,2,1,20,0,11000.jpg 2,2,1,0,1,0,800,2490,2.5,2.5,1,1.5,0.43646881012518807,0
Dyads,34,2,1,21,0,11111.jpg 2,4,4,1,1,1,900,7351,2.5,2.5,1,1.5,0.6818712298725317,1
Dyads,34,2,1,22,0,00100.jpg 2,1,2,0,0,0,800,5944,2.5,2.5,1,1.5,0.49393328006932086,0
Dyads,34,2,1,23,0,00000.jpg 2,1,1,0,0,1,900,2667,2.5,2.5,1,1.5,0.6827018834246884,1
Dyads,34,2,1,24,0,11110.jpg 2,4,4,1,1,1,1000,8592,2.5,2.5,1,1.5,0.6280911612872859,1
Dyads,34,2,1,25,0,11010.jpg 2,4,4,1,1,1,1100,30625,2.5,2.5,1,1.5,0.38691394848763533,1
Dyads,34,2,1,26,0,01101.jpg 2,2,2,0,1,1,1200,9567,2.5,2.5,1,1.5,0.4961733997569051,1
Dyads,34,2,1,27,0,11010.jpg 2,4,3,1,1,0,1100,21401,2.5,2.5,1,1.5,0.38691394848763533,0
Dyads,34,2,1,28,0,00101.jpg 2,1,2,0,0,0,1000,3295,2.5,2.5,1,1.5,0.5047845575973586,0
Dyads,34,2,1,29,0,11000.jpg 2,2,1,0,1,0,900,9420,2.5,2.5,1,1.5,0.43646881012518807,0
Dyads,34,2,1,30,0,01101.jpg 2,2,2,0,1,1,1000,4204,2.5,2.5,1,1.5,0.4961733997569051,1
Dyads,34,2,1,31,0,11011.jpg 2,4,4,1,1,1,1100,17141,2.5,2.5,1,1.5,0.3268575108575001,1
Dyads,34,2,1,32,0,00011.jpg 2,3,2,1,0,0,1000,25783,2.5,2.5,1,1.5,0.6268749946822988,0
Dyads,34,3,1,1,0,11000.jpg 3,1,3,0,0,0,-100,21791,2.5,2.5,1,1.5,0.5673119241103985,0
Dyads,34,3,1,2,0,10110.jpg 3,2,4,0,1,0,-200,6568,2.5,2.5,1,1.5,0.4664713817836656,0
Dyads,34,3,1,3,0,10101.jpg 3,2,2,0,1,1,-100,49130,2.5,2.5,1,1.5,0.5439420604898552,1
Dyads,34,3,1,4,0,01111.jpg 3,4,2,1,1,0,-200,25518,2.5,2.5,1,1.5,0.43248557560596457,0
Dyads,34,3,1,5,0,01010.jpg 3,1,4,0,0,0,-300,7567,2.5,2.5,1,1.5,0.5058788630154541,0
Dyads,34,3,1,6,0,01100.jpg 3,2,3,0,1,0,-400,28209,2.5,2.5,1,1.5,0.5200249442138795,0
Dyads,34,3,1,7,0,01100.jpg 3,2,2,0,1,1,-300,1839,2.5,2.5,1,1.5,0.5200249442138795,1
Dyads,34,3,1,8,0,11010.jpg 3,2,1,0,1,0,-400,21078,2.5,2.5,1,1.5,0.4852086619181855,0
Dyads,34,3,1,9,0,10000.jpg 3,1,2,0,0,0,-500,4315,2.5,2.5,1,1.5,0.572579010624713,0
Dyads,34,3,1,10,0,01101.jpg 3,2,2,0,1,1,-400,23385,2.5,2.5,1,1.5,0.4947834712702663,1
Dyads,34,3,1,11,0,11110.jpg 3,2,1,0,1,0,-500,6297,2.5,2.5,1,1.5,0.5476719183143667,0
Dyads,34,3,1,12,0,11011.jpg 3,4,2,1,1,0,-600,19423,2.5,2.5,1,1.5,0.44637047668466917,0
Dyads,34,3,1,13,0,01000.jpg 3,1,1,0,0,1,-500,21595,2.5,2.5,1,1.5,0.6708237271987139,1
Dyads,34,3,1,14,0,00101.jpg 3,1,2,0,0,0,-600,14797,2.5,2.5,1,1.5,0.4137213885705384,0
Dyads,34,3,1,15,0,10001.jpg 3,1,3,0,0,0,-700,28398,2.5,2.5,1,1.5,0.6591351240131585,0
Dyads,34,3,1,16,0,00010.jpg 3,1,2,0,0,0,-800,19221,2.5,2.5,1,1.5,0.5043541410218328,0
Dyads,34,3,1,17,0,10010.jpg 3,1,2,0,0,0,-900,10069,2.5,2.5,1,1.5,0.29450673934091437,0
Dyads,34,3,1,18,0,00000.jpg 3,1,1,0,0,1,-800,2874,2.5,2.5,1,1.5,0.6720444865431019,1
Dyads,34,3,1,19,0,11110.jpg 3,2,2,0,1,1,-700,12456,2.5,2.5,1,1.5,0.5476719183143667,1
Dyads,34,3,1,20,0,01111.jpg 3,4,1,1,1,0,-800,18894,2.5,2.5,1,1.5,0.43248557560596457,0
Dyads,34,3,1,21,0,11100.jpg 3,2,3,0,1,0,-900,30241,2.5,2.5,1,1.5,0.5955967746090741,0
Dyads,34,3,1,22,0,00011.jpg 3,3,1,1,0,0,-1000,4528,2.5,2.5,1,1.5,0.45786325605759237,0
Dyads,34,3,1,23,0,01001.jpg 3,1,1,0,0,1,-900,2708,2.5,2.5,1,1.5,0.7054940717841789,1
Dyads,34,3,1,24,0,11101.jpg 3,2,2,0,1,1,-800,13104,2.5,2.5,1,1.5,0.5236473565445684,1
Dyads,34,3,1,25,0,01000.jpg 3,1,1,0,0,1,-700,1741,2.5,2.5,1,1.5,0.6708237271987139,1
Dyads,34,3,1,26,0,11011.jpg 3,4,4,1,1,1,-600,30527,2.5,2.5,1,1.5,0.44637047668466917,1
Dyads,34,3,1,27,0,00001.jpg 3,1,1,0,0,1,-500,3123,2.5,2.5,1,1.5,0.7920458883321437,1
Dyads,34,3,1,28,0,01011.jpg 3,3,3,1,0,1,-400,7374,2.5,2.5,1,1.5,0.42081909010410923,1
Dyads,34,3,1,29,0,11110.jpg 3,2,2,0,1,1,-300,12496,2.5,2.5,1,1.5,0.5476719183143667,1
Dyads,34,3,1,30,0,00100.jpg 3,1,1,0,0,1,-200,3238,2.5,2.5,1,1.5,0.5825374918108204,1
Dyads,34,3,1,31,0,10000.jpg 3,1,1,0,0,1,-100,2061,2.5,2.5,1,1.5,0.572579010624713,1
Dyads,34,3,1,32,0,11010.jpg 3,2,4,0,1,0,-200,11156,2.5,2.5,1,1.5,0.4852086619181855,0
Dyads,35,1,1,1,0,10101.jpg 1,3,4,1,0,0,-100,20111,2,3.5,3,1.5,0.5764978959874304,0
Dyads,35,1,1,2,0,10000.jpg 1,1,4,0,0,0,-200,10841,2,3.5,3,1.5,0.4630637698154097,0
Dyads,35,1,1,3,0,10100.jpg 1,3,3,1,0,1,-100,6407,2,3.5,3,1.5,0.6579131740018884,1
Dyads,35,1,1,4,0,10000.jpg 1,1,3,0,0,0,-200,12169,2,3.5,3,1.5,0.4630637698154097,0
Dyads,35,1,1,5,0,11111.jpg 1,4,2,1,1,0,-300,23122,2,3.5,3,1.5,0.706449951574475,0
Dyads,35,1,1,6,0,11101.jpg 1,3,3,1,0,1,-200,33539,2,3.5,3,1.5,0.6375450885220367,1
Dyads,35,1,1,7,0,11101.jpg 1,3,3,1,0,1,-100,8710,2,3.5,3,1.5,0.6375450885220367,1
Dyads,35,1,1,8,0,10101.jpg 1,3,4,1,0,0,-200,12859,2,3.5,3,1.5,0.5764978959874304,0
Dyads,35,1,1,9,0,01100.jpg 1,1,1,0,0,1,-100,5570,2,3.5,3,1.5,0.50240691655381,1
Dyads,35,1,1,10,0,11000.jpg 1,1,1,0,0,1,0,24723,2,3.5,3,1.5,0.672638081867466,1
Dyads,35,1,1,11,0,01111.jpg 1,2,2,0,1,1,100,7167,2,3.5,3,1.5,0.6467330221746459,1
Dyads,35,1,1,12,0,10010.jpg 1,2,2,0,1,1,200,16577,2,3.5,3,1.5,0.5986814078274998,1
Dyads,35,1,1,13,0,11010.jpg 1,2,2,0,1,1,300,6747,2,3.5,3,1.5,0.5619190517139778,1
Dyads,35,1,1,14,0,10100.jpg 1,3,2,1,0,0,200,28356,2,3.5,3,1.5,0.6579131740018884,0
Dyads,35,1,1,15,0,01011.jpg 1,2,2,0,1,1,300,4583,2,3.5,3,1.5,0.7610796118673558,1
Dyads,35,1,1,16,0,00011.jpg 1,2,2,0,1,1,400,2656,2,3.5,3,1.5,0.7114181756079073,1
Dyads,35,1,1,17,0,00011.jpg 1,2,2,0,1,1,500,1768,2,3.5,3,1.5,0.7114181756079073,1
Dyads,35,1,1,18,0,00001.jpg 1,1,2,0,0,0,400,2889,2,3.5,3,1.5,0.7121691335036288,0
Dyads,35,1,1,19,0,11000.jpg 1,1,1,0,0,1,500,14270,2,3.5,3,1.5,0.672638081867466,1
Dyads,35,1,1,20,0,10010.jpg 1,2,2,0,1,1,600,7291,2,3.5,3,1.5,0.5986814078274998,1
Dyads,35,1,1,21,0,01100.jpg 1,1,1,0,0,1,700,8783,2,3.5,3,1.5,0.50240691655381,1
Dyads,35,1,1,22,0,01010.jpg 1,2,2,0,1,1,800,3546,2,3.5,3,1.5,0.7346599953267999,1
Dyads,35,1,1,23,0,01101.jpg 1,1,1,0,0,1,900,3411,2,3.5,3,1.5,0.5958490600923398,1
Dyads,35,1,1,24,0,11011.jpg 1,2,2,0,1,1,1000,23148,2,3.5,3,1.5,0.4655169241007977,1
Dyads,35,1,1,25,0,11110.jpg 1,4,4,1,1,1,1100,11686,2,3.5,3,1.5,0.7592001637241474,1
Dyads,35,1,1,26,0,11000.jpg 1,1,1,0,0,1,1200,9402,2,3.5,3,1.5,0.672638081867466,1
Dyads,35,1,1,27,0,00100.jpg 1,1,1,0,0,1,1300,4011,2,3.5,3,1.5,0.6732485834906446,1
Dyads,35,1,1,28,0,00110.jpg 1,2,2,0,1,1,1400,2251,2,3.5,3,1.5,0.5401732428261254,1
Dyads,35,1,1,29,0,11100.jpg 1,3,3,1,0,1,1500,9162,2,3.5,3,1.5,0.5849763559523161,1
Dyads,35,1,1,30,0,01000.jpg 1,1,1,0,0,1,1600,1877,2,3.5,3,1.5,0.853308112395666,1
Dyads,35,1,1,31,0,10100.jpg 1,3,3,1,0,1,1700,11355,2,3.5,3,1.5,0.6579131740018884,1
Dyads,35,1,1,32,0,00110.jpg 1,2,2,0,1,1,1800,34565,2,3.5,3,1.5,0.5401732428261254,1
Dyads,35,2,1,1,0,10110.jpg 2,4,2,1,1,0,-100,60162,2,3.5,3,1.5,0.5942413423023462,0
Dyads,35,2,1,2,0,11011.jpg 2,4,2,1,1,0,-200,5135,2,3.5,3,1.5,0.35260972521222805,0
Dyads,35,2,1,3,0,00111.jpg 2,3,2,1,0,0,-300,10626,2,3.5,3,1.5,0.33688784421253964,0
Dyads,35,2,1,4,0,10111.jpg 2,4,4,1,1,1,-200,11977,2,3.5,3,1.5,0.8054039934769037,1
Dyads,35,2,1,5,0,01110.jpg 2,4,2,1,1,0,-300,13018,2,3.5,3,1.5,0.4851004942273925,0
Dyads,35,2,1,6,0,10010.jpg 2,3,3,1,0,1,-200,4487,2,3.5,3,1.5,0.39714981479926426,1
Dyads,35,2,1,7,0,00101.jpg 2,1,2,0,0,0,-300,2813,2,3.5,3,1.5,0.533445992133065,0
Dyads,35,2,1,8,0,00001.jpg 2,1,1,0,0,1,-200,4300,2,3.5,3,1.5,0.6470620700677602,1
Dyads,35,2,1,9,0,11110.jpg 2,4,4,1,1,1,-100,14073,2,3.5,3,1.5,0.6545006421884922,1
Dyads,35,2,1,10,0,00000.jpg 2,1,2,0,0,0,-200,5221,2,3.5,3,1.5,0.7070421939259282,0
Dyads,35,2,1,11,0,00010.jpg 2,3,3,1,0,1,-100,18125,2,3.5,3,1.5,0.5384831543750529,1
Dyads,35,2,1,12,0,01010.jpg 2,3,3,1,0,1,0,20929,2,3.5,3,1.5,0.5451264633443195,1
Dyads,35,2,1,13,0,01101.jpg 2,2,1,0,1,0,-100,23982,2,3.5,3,1.5,0.5248641070998236,0
Dyads,35,2,1,14,0,01100.jpg 2,2,2,0,1,1,0,10542,2,3.5,3,1.5,0.5779562197854016,1
Dyads,35,2,1,15,0,11111.jpg 2,4,4,1,1,1,100,4257,2,3.5,3,1.5,0.7062478432400644,1
Dyads,35,2,1,16,0,01010.jpg 2,3,3,1,0,1,200,6406,2,3.5,3,1.5,0.5451264633443195,1
Dyads,35,2,1,17,0,10111.jpg 2,4,4,1,1,1,300,3791,2,3.5,3,1.5,0.8054039934769037,1
Dyads,35,2,1,18,0,00011.jpg 2,3,3,1,0,1,400,6192,2,3.5,3,1.5,0.6533231692573287,1
Dyads,35,2,1,19,0,10111.jpg 2,4,4,1,1,1,500,2697,2,3.5,3,1.5,0.8054039934769037,1
Dyads,35,2,1,20,0,00001.jpg 2,1,1,0,0,1,600,8636,2,3.5,3,1.5,0.6470620700677602,1
Dyads,35,2,1,21,0,00111.jpg 2,3,4,1,0,0,500,2548,2,3.5,3,1.5,0.33688784421253964,0
Dyads,35,2,1,22,0,10101.jpg 2,2,2,0,1,1,600,12967,2,3.5,3,1.5,0.5789369480582419,1
Dyads,35,2,1,23,0,01000.jpg 2,1,1,0,0,1,700,4993,2,3.5,3,1.5,0.5516235479660558,1
Dyads,35,2,1,24,0,01101.jpg 2,2,2,0,1,1,800,4107,2,3.5,3,1.5,0.5248641070998236,1
Dyads,35,2,1,25,0,00010.jpg 2,3,3,1,0,1,900,2559,2,3.5,3,1.5,0.5384831543750529,1
Dyads,35,2,1,26,0,10100.jpg 2,2,2,0,1,1,1000,5273,2,3.5,3,1.5,0.6274474709741408,1
Dyads,35,2,1,27,0,11001.jpg 2,2,1,0,1,0,900,2231,2,3.5,3,1.5,0.5582983162915974,0
Dyads,35,2,1,28,0,11111.jpg 2,4,4,1,1,1,1000,26110,2,3.5,3,1.5,0.7062478432400644,1
Dyads,35,2,1,29,0,00101.jpg 2,1,2,0,0,0,900,3321,2,3.5,3,1.5,0.533445992133065,0
Dyads,35,2,1,30,0,11100.jpg 2,2,2,0,1,1,1000,4565,2,3.5,3,1.5,0.45460739244248205,1
Dyads,35,2,1,31,0,11001.jpg 2,2,1,0,1,0,900,4079,2,3.5,3,1.5,0.5582983162915974,0
Dyads,35,2,1,32,0,01010.jpg 2,3,3,1,0,1,1000,20828,2,3.5,3,1.5,0.5451264633443195,1
Dyads,35,3,1,1,0,01110.jpg 3,2,1,0,1,0,-100,38610,2,3.5,3,1.5,0.3957907104190599,0
Dyads,35,3,1,2,0,10110.jpg 3,2,2,0,1,1,0,7483,2,3.5,3,1.5,0.4057589072538742,1
Dyads,35,3,1,3,0,10100.jpg 3,1,2,0,0,0,-100,21175,2,3.5,3,1.5,0.21871202986309093,0
Dyads,35,3,1,4,0,00000.jpg 3,1,1,0,0,1,0,4697,2,3.5,3,1.5,0.6154397669021091,1
Dyads,35,3,1,5,0,00011.jpg 3,3,2,1,0,0,-100,2870,2,3.5,3,1.5,0.39743656465136507,0
Dyads,35,3,1,6,0,00100.jpg 3,1,2,0,0,0,-200,4291,2,3.5,3,1.5,0.5214839860274985,0
Dyads,35,3,1,7,0,01011.jpg 3,3,3,1,0,1,-100,18368,2,3.5,3,1.5,0.3620166979725422,1
Dyads,35,3,1,8,0,00001.jpg 3,1,1,0,0,1,0,6971,2,3.5,3,1.5,0.7483990403605886,1
Dyads,35,3,1,9,0,00101.jpg 3,1,2,0,0,0,-100,14156,2,3.5,3,1.5,0.35530236415020555,0
Dyads,35,3,1,10,0,11011.jpg 3,4,3,1,1,0,-200,7303,2,3.5,3,1.5,0.3863795552994732,0
Dyads,35,3,1,11,0,10011.jpg 3,3,3,1,0,1,-100,13929,2,3.5,3,1.5,0.3625936925482854,1
Dyads,35,3,1,12,0,00001.jpg 3,1,1,0,0,1,0,6972,2,3.5,3,1.5,0.7483990403605886,1
Dyads,35,3,1,13,0,11110.jpg 3,2,4,0,1,0,-100,8743,2,3.5,3,1.5,0.4860183307979529,0
Dyads,35,3,1,14,0,10000.jpg 3,1,1,0,0,1,0,10329,2,3.5,3,1.5,0.5112909217378461,1
Dyads,35,3,1,15,0,11001.jpg 3,2,2,0,1,1,100,13205,2,3.5,3,1.5,0.3506390667372637,1
Dyads,35,3,1,16,0,01000.jpg 3,1,4,0,0,0,0,27261,2,3.5,3,1.5,0.6141292854288111,0
Dyads,35,3,1,17,0,10101.jpg 3,2,1,0,1,0,-100,25579,2,3.5,3,1.5,0.4822606872870553,0
Dyads,35,3,1,18,0,00010.jpg 3,1,3,0,0,0,-200,12949,2,3.5,3,1.5,0.44280323881404804,0
Dyads,35,3,1,19,0,10011.jpg 3,3,3,1,0,1,-100,8744,2,3.5,3,1.5,0.3625936925482854,1
Dyads,35,3,1,20,0,01101.jpg 3,2,2,0,1,1,0,6498,2,3.5,3,1.5,0.4333793009621086,1
Dyads,35,3,1,21,0,01000.jpg 3,1,2,0,0,0,-100,6631,2,3.5,3,1.5,0.6141292854288111,0
Dyads,35,3,1,22,0,10001.jpg 3,1,2,0,0,0,-200,8799,2,3.5,3,1.5,0.6016230690982021,0
Dyads,35,3,1,23,0,00100.jpg 3,1,2,0,0,0,-300,16399,2,3.5,3,1.5,0.5214839860274985,0
Dyads,35,3,1,24,0,00000.jpg 3,1,2,0,0,0,-400,5480,2,3.5,3,1.5,0.6154397669021091,0
Dyads,35,3,1,25,0,00101.jpg 3,1,1,0,0,1,-300,3165,2,3.5,3,1.5,0.35530236415020555,1
Dyads,35,3,1,26,0,01111.jpg 3,4,3,1,1,0,-400,5680,2,3.5,3,1.5,0.3731031453997903,0
Dyads,35,3,1,27,0,01010.jpg 3,1,2,0,0,0,-500,5492,2,3.5,3,1.5,0.44430868777980354,0
Dyads,35,3,1,28,0,10111.jpg 3,4,2,1,1,0,-600,11143,2,3.5,3,1.5,0.45500478135326594,0
Dyads,35,3,1,29,0,01110.jpg 3,2,2,0,1,1,-500,21377,2,3.5,3,1.5,0.3957907104190599,1
Dyads,35,3,1,30,0,11011.jpg 3,4,1,1,1,0,-600,9971,2,3.5,3,1.5,0.3863795552994732,0
Dyads,35,3,1,31,0,00110.jpg 3,1,4,0,0,0,-700,10306,2,3.5,3,1.5,0.33365571708383085,0
Dyads,35,3,1,32,0,10000.jpg 3,1,1,0,0,1,-600,31398,2,3.5,3,1.5,0.5112909217378461,1
Dyads,36,1,1,1,0,10110.jpg 1,4,3,1,1,0,-100,28755,2.5,3.5,1.5,1,0.7287030746411074,0
Dyads,36,1,1,2,0,00000.jpg 1,1,2,0,0,0,-200,23915,2.5,3.5,1.5,1,0.8168889476357899,0
Dyads,36,1,1,3,0,11111.jpg 1,4,4,1,1,1,-100,23599,2.5,3.5,1.5,1,0.8076734681881211,1
Dyads,36,1,1,4,0,10010.jpg 1,2,3,0,1,0,-200,11045,2.5,3.5,1.5,1,0.7224672215795392,0
Dyads,36,1,1,5,0,11011.jpg 1,2,4,0,1,0,-300,3588,2.5,3.5,1.5,1,0.6031499681579617,0
Dyads,36,1,1,6,0,00110.jpg 1,2,2,0,1,1,-200,30518,2.5,3.5,1.5,1,0.672122186846777,1
Dyads,36,1,1,7,0,01111.jpg 1,2,2,0,1,1,-100,13434,2.5,3.5,1.5,1,0.761599449195355,1
Dyads,36,1,1,8,0,11100.jpg 1,3,1,1,0,0,-200,20328,2.5,3.5,1.5,1,0.7109484677505631,0
Dyads,36,1,1,9,0,01111.jpg 1,2,2,0,1,1,-100,6485,2.5,3.5,1.5,1,0.761599449195355,1
Dyads,36,1,1,10,0,10001.jpg 1,1,3,0,0,0,-200,4177,2.5,3.5,1.5,1,0.6610150482526477,0
Dyads,36,1,1,11,0,01010.jpg 1,2,2,0,1,1,-100,6076,2.5,3.5,1.5,1,0.8285172228410372,1
Dyads,36,1,1,12,0,01110.jpg 1,2,2,0,1,1,0,3968,2.5,3.5,1.5,1,0.8447386700857673,1
Dyads,36,1,1,13,0,11000.jpg 1,1,1,0,0,1,100,51674,2.5,3.5,1.5,1,0.7819216431341447,1
Dyads,36,1,1,14,0,11001.jpg 1,1,3,0,0,0,0,23760,2.5,3.5,1.5,1,0.720997789425693,0
Dyads,36,1,1,15,0,11101.jpg 1,3,4,1,0,0,-100,26905,2.5,3.5,1.5,1,0.754263869122521,0
Dyads,36,1,1,16,0,10100.jpg 1,3,3,1,0,1,0,3365,2.5,3.5,1.5,1,0.7704347058194282,1
Dyads,36,1,1,17,0,11000.jpg 1,1,1,0,0,1,100,4440,2.5,3.5,1.5,1,0.7819216431341447,1
Dyads,36,1,1,18,0,10100.jpg 1,3,3,1,0,1,200,3127,2.5,3.5,1.5,1,0.7704347058194282,1
Dyads,36,1,1,19,0,00010.jpg 1,2,2,0,1,1,300,24403,2.5,3.5,1.5,1,0.7967220944415109,1
Dyads,36,1,1,20,0,10111.jpg 1,4,4,1,1,1,400,8332,2.5,3.5,1.5,1,0.8160365841120776,1
Dyads,36,1,1,21,0,00110.jpg 1,2,2,0,1,1,500,15510,2.5,3.5,1.5,1,0.672122186846777,1
Dyads,36,1,1,22,0,11111.jpg 1,4,4,1,1,1,600,3680,2.5,3.5,1.5,1,0.8076734681881211,1
Dyads,36,1,1,23,0,10110.jpg 1,4,4,1,1,1,700,2437,2.5,3.5,1.5,1,0.7287030746411074,1
Dyads,36,1,1,24,0,01011.jpg 1,2,2,0,1,1,800,3267,2.5,3.5,1.5,1,0.8475310622652351,1
Dyads,36,1,1,25,0,01110.jpg 1,2,2,0,1,1,900,2241,2.5,3.5,1.5,1,0.8447386700857673,1
Dyads,36,1,1,26,0,11101.jpg 1,3,3,1,0,1,1000,7671,2.5,3.5,1.5,1,0.754263869122521,1
Dyads,36,1,1,27,0,11110.jpg 1,4,4,1,1,1,1100,2038,2.5,3.5,1.5,1,0.8461942442664634,1
Dyads,36,1,1,28,0,00100.jpg 1,1,1,0,0,1,1200,3197,2.5,3.5,1.5,1,0.7823942733108047,1
Dyads,36,1,1,29,0,11110.jpg 1,4,4,1,1,1,1300,3637,2.5,3.5,1.5,1,0.8461942442664634,1
Dyads,36,1,1,30,0,01100.jpg 1,1,1,0,0,1,1400,1819,2.5,3.5,1.5,1,0.6379290233270284,1
Dyads,36,1,1,31,0,00111.jpg 1,2,2,0,1,1,1500,2874,2.5,3.5,1.5,1,0.6949794566084752,1
Dyads,36,1,1,32,0,11100.jpg 1,3,3,1,0,1,1600,3200,2.5,3.5,1.5,1,0.7109484677505631,1
Dyads,36,2,1,1,0,10010.jpg 2,3,4,1,0,0,-100,30919,2.5,3.5,1.5,1,0.5199392729360712,0
Dyads,36,2,1,2,0,11001.jpg 2,2,1,0,1,0,-200,19267,2.5,3.5,1.5,1,0.6751153255419869,0
Dyads,36,2,1,3,0,00010.jpg 2,3,1,1,0,0,-300,22001,2.5,3.5,1.5,1,0.657324125350725,0
Dyads,36,2,1,4,0,01101.jpg 2,2,4,0,1,0,-400,10426,2.5,3.5,1.5,1,0.6448993719119084,0
Dyads,36,2,1,5,0,01010.jpg 2,3,3,1,0,1,-300,14632,2.5,3.5,1.5,1,0.6633263243597409,1
Dyads,36,2,1,6,0,00000.jpg 2,1,4,0,0,0,-400,9833,2.5,3.5,1.5,1,0.7987043780125349,0
Dyads,36,2,1,7,0,00010.jpg 2,3,3,1,0,1,-300,16687,2.5,3.5,1.5,1,0.657324125350725,1
Dyads,36,2,1,8,0,01000.jpg 2,1,2,0,0,0,-400,16741,2.5,3.5,1.5,1,0.6691597548649849,0
Dyads,36,2,1,9,0,10000.jpg 2,1,2,0,0,0,-500,36727,2.5,3.5,1.5,1,0.5152026151138018,0
Dyads,36,2,1,10,0,01110.jpg 2,4,3,1,1,0,-600,46345,2.5,3.5,1.5,1,0.6076724386947303,0
Dyads,36,2,1,11,0,00001.jpg 2,1,1,0,0,1,-500,14131,2.5,3.5,1.5,1,0.7508787704360051,1
Dyads,36,2,1,12,0,10001.jpg 2,1,1,0,0,1,-400,29055,2.5,3.5,1.5,1,0.7362424758809439,1
Dyads,36,2,1,13,0,11011.jpg 2,4,1,1,1,0,-500,33070,2.5,3.5,1.5,1,0.47241979440696574,0
Dyads,36,2,1,14,0,00111.jpg 2,3,3,1,0,1,-400,56530,2.5,3.5,1.5,1,0.45511130720389886,1
Dyads,36,2,1,15,0,10100.jpg 2,2,3,0,1,0,-500,16805,2.5,3.5,1.5,1,0.7346679293190015,0
Dyads,36,2,1,16,0,10010.jpg 2,3,4,1,0,0,-600,22461,2.5,3.5,1.5,1,0.5199392729360712,0
Dyads,36,2,1,17,0,11100.jpg 2,2,2,0,1,1,-500,22484,2.5,3.5,1.5,1,0.5781254295643697,1
Dyads,36,2,1,18,0,10100.jpg 2,2,2,0,1,1,-400,8136,2.5,3.5,1.5,1,0.7346679293190015,1
Dyads,36,2,1,19,0,01111.jpg 2,4,4,1,1,1,-300,6460,2.5,3.5,1.5,1,0.6274216054086718,1
Dyads,36,2,1,20,0,00000.jpg 2,1,3,0,0,0,-400,6145,2.5,3.5,1.5,1,0.7987043780125349,0
Dyads,36,2,1,21,0,10101.jpg 2,2,2,0,1,1,-300,4652,2.5,3.5,1.5,1,0.693294216423482,1
Dyads,36,2,1,22,0,00101.jpg 2,1,4,0,0,0,-400,16250,2.5,3.5,1.5,1,0.6527475909342507,0
Dyads,36,2,1,23,0,00110.jpg 2,3,3,1,0,1,-300,28736,2.5,3.5,1.5,1,0.5793012797345075,1
Dyads,36,2,1,24,0,01011.jpg 2,3,3,1,0,1,-200,24452,2.5,3.5,1.5,1,0.6636931397573524,1
Dyads,36,2,1,25,0,10100.jpg 2,2,2,0,1,1,-100,5627,2.5,3.5,1.5,1,0.7346679293190015,1
Dyads,36,2,1,26,0,01111.jpg 2,4,3,1,1,0,-200,30059,2.5,3.5,1.5,1,0.6274216054086718,0
Dyads,36,2,1,27,0,01000.jpg 2,1,1,0,0,1,-100,10279,2.5,3.5,1.5,1,0.6691597548649849,1
Dyads,36,2,1,28,0,11001.jpg 2,2,1,0,1,0,-200,4388,2.5,3.5,1.5,1,0.6751153255419869,0
Dyads,36,2,1,29,0,11000.jpg 2,2,2,0,1,1,-100,6287,2.5,3.5,1.5,1,0.5881914708271777,1
Dyads,36,2,1,30,0,11010.jpg 2,4,2,1,1,0,-200,20059,2.5,3.5,1.5,1,0.5378516393634325,0
Dyads,36,2,1,31,0,01001.jpg 2,1,1,0,0,1,-100,5913,2.5,3.5,1.5,1,0.7243431385102687,1
Dyads,36,2,1,32,0,00111.jpg 2,3,4,1,0,0,-200,10796,2.5,3.5,1.5,1,0.45511130720389886,0
Dyads,36,3,1,1,0,10101.jpg 3,2,4,0,1,0,-100,32984,2.5,3.5,1.5,1,0.5786292082763219,0
Dyads,36,3,1,2,0,00010.jpg 3,1,1,0,0,1,0,12697,2.5,3.5,1.5,1,0.5395032019205681,1
Dyads,36,3,1,3,0,00001.jpg 3,1,1,0,0,1,100,8726,2.5,3.5,1.5,1,0.814304736660758,1
Dyads,36,3,1,4,0,11000.jpg 3,1,1,0,0,1,200,10394,2.5,3.5,1.5,1,0.6015237224917468,1
Dyads,36,3,1,5,0,01111.jpg 3,4,2,1,1,0,100,8594,2.5,3.5,1.5,1,0.4673486874558619,0
Dyads,36,3,1,6,0,10111.jpg 3,4,2,1,1,0,0,13882,2.5,3.5,1.5,1,0.5517308830176019,0
Dyads,36,3,1,7,0,00101.jpg 3,1,2,0,0,0,-100,12709,2.5,3.5,1.5,1,0.4482666684460142,0
Dyads,36,3,1,8,0,00001.jpg 3,1,1,0,0,1,0,5906,2.5,3.5,1.5,1,0.814304736660758,1
Dyads,36,3,1,9,0,01000.jpg 3,1,1,0,0,1,100,1534,2.5,3.5,1.5,1,0.7011623110486545,1
Dyads,36,3,1,10,0,00100.jpg 3,1,1,0,0,1,200,3985,2.5,3.5,1.5,1,0.6163595329165548,1
Dyads,36,3,1,11,0,01010.jpg 3,1,2,0,0,0,100,11658,2.5,3.5,1.5,1,0.5410181967001106,0
Dyads,36,3,1,12,0,00010.jpg 3,1,1,0,0,1,200,5289,2.5,3.5,1.5,1,0.5395032019205681,1
Dyads,36,3,1,13,0,11001.jpg 3,2,1,0,1,0,100,20510,2.5,3.5,1.5,1,0.4432220615857301,0
Dyads,36,3,1,14,0,01000.jpg 3,1,1,0,0,1,200,3200,2.5,3.5,1.5,1,0.7011623110486545,1
Dyads,36,3,1,15,0,11010.jpg 3,2,2,0,1,1,300,20522,2.5,3.5,1.5,1,0.5204244263880676,1
Dyads,36,3,1,16,0,00011.jpg 3,3,1,1,0,0,200,6429,2.5,3.5,1.5,1,0.4929949883755473,0
Dyads,36,3,1,17,0,11010.jpg 3,2,2,0,1,1,300,10988,2.5,3.5,1.5,1,0.5204244263880676,1
Dyads,36,3,1,18,0,10100.jpg 3,1,4,0,0,0,200,18197,2.5,3.5,1.5,1,0.29213194677766396,0
Dyads,36,3,1,19,0,10001.jpg 3,1,1,0,0,1,300,6958,2.5,3.5,1.5,1,0.6900532435037754,1
Dyads,36,3,1,20,0,10110.jpg 3,2,4,0,1,0,200,7042,2.5,3.5,1.5,1,0.501652437187237,0
Dyads,36,3,1,21,0,01000.jpg 3,1,1,0,0,1,300,4239,2.5,3.5,1.5,1,0.7011623110486545,1
Dyads,36,3,1,22,0,11110.jpg 3,2,2,0,1,1,400,5656,2.5,3.5,1.5,1,0.5822932292594734,1
Dyads,36,3,1,23,0,10111.jpg 3,4,2,1,1,0,300,6989,2.5,3.5,1.5,1,0.5517308830176019,0
Dyads,36,3,1,24,0,10101.jpg 3,2,4,0,1,0,200,6269,2.5,3.5,1.5,1,0.5786292082763219,0
Dyads,36,3,1,25,0,01001.jpg 3,1,1,0,0,1,300,7491,2.5,3.5,1.5,1,0.7339047742350946,1
Dyads,36,3,1,26,0,01001.jpg 3,1,1,0,0,1,400,21056,2.5,3.5,1.5,1,0.7339047742350946,1
Dyads,36,3,1,27,0,11110.jpg 3,2,2,0,1,1,500,12111,2.5,3.5,1.5,1,0.5822932292594734,1
Dyads,36,3,1,28,0,11011.jpg 3,4,2,1,1,0,400,11010,2.5,3.5,1.5,1,0.48140342035335,0
Dyads,36,3,1,29,0,11001.jpg 3,2,1,0,1,0,300,4729,2.5,3.5,1.5,1,0.4432220615857301,0
Dyads,36,3,1,30,0,01100.jpg 3,2,1,0,1,0,200,7173,2.5,3.5,1.5,1,0.5550431277949998,0
Dyads,36,3,1,31,0,10111.jpg 3,4,4,1,1,1,300,5494,2.5,3.5,1.5,1,0.5517308830176019,1
Dyads,36,3,1,32,0,10010.jpg 3,1,2,0,0,0,200,10202,2.5,3.5,1.5,1,0.32460919341743794,0
Dyads,37,1,1,1,0,00110.jpg 1,2,3,0,1,0,-100,59756,3,1,1.5,1,0.5279754355733031,0
Dyads,37,1,1,2,0,11000.jpg 1,1,4,0,0,0,-200,33182,3,1,1.5,1,0.6617538337627842,0
Dyads,37,1,1,3,0,01011.jpg 1,2,2,0,1,1,-100,22341,3,1,1.5,1,0.7520519586410483,1
Dyads,37,1,1,4,0,10000.jpg 1,1,1,0,0,1,0,32111,3,1,1.5,1,0.4508997664989622,1
Dyads,37,1,1,5,0,11011.jpg 1,2,1,0,1,0,-100,64659,3,1,1.5,1,0.45334288827511005,0
Dyads,37,1,1,6,0,01111.jpg 1,2,3,0,1,0,-200,47409,3,1,1.5,1,0.6354542674131564,0
Dyads,37,1,1,7,0,10101.jpg 1,3,2,1,0,0,-300,31898,3,1,1.5,1,0.5644867854956779,0
Dyads,37,1,1,8,0,11111.jpg 1,4,2,1,1,0,-400,19143,3,1,1.5,1,0.6961821177765243,0
Dyads,37,1,1,9,0,00111.jpg 1,2,4,0,1,0,-500,126174,3,1,1.5,1,0.5542166877957073,0
Dyads,37,1,1,10,0,10100.jpg 1,3,2,1,0,0,-600,24984,3,1,1.5,1,0.6467964257454878,0
Dyads,37,1,1,11,0,00000.jpg 1,1,1,0,0,1,-500,39655,3,1,1.5,1,0.7088138005774569,1
Dyads,37,1,1,12,0,11000.jpg 1,1,2,0,0,0,-600,7120,3,1,1.5,1,0.6617538337627842,0
Dyads,37,1,1,13,0,00001.jpg 1,1,1,0,0,1,-500,33402,3,1,1.5,1,0.7020169658007469,1
Dyads,37,1,1,14,0,01011.jpg 1,2,4,0,1,0,-600,20418,3,1,1.5,1,0.7520519586410483,0
Dyads,37,1,1,15,0,11110.jpg 1,4,4,1,1,1,-500,5355,3,1,1.5,1,0.7501248107021823,1
Dyads,37,1,1,16,0,01010.jpg 1,2,2,0,1,1,-400,15395,3,1,1.5,1,0.7249947824521873,1
Dyads,37,1,1,17,0,11101.jpg 1,3,3,1,0,1,-300,28668,3,1,1.5,1,0.6261425636993291,1
Dyads,37,1,1,18,0,10010.jpg 1,2,4,0,1,0,-400,37850,3,1,1.5,1,0.5868485638980822,0
Dyads,37,1,1,19,0,01001.jpg 1,1,1,0,0,1,-300,39057,3,1,1.5,1,0.7639526933143176,1
Dyads,37,1,1,20,0,00101.jpg 1,1,4,0,0,0,-400,33542,3,1,1.5,1,0.5685250328831267,0
Dyads,37,1,1,21,0,01111.jpg 1,2,1,0,1,0,-500,19554,3,1,1.5,1,0.6354542674131564,0
Dyads,37,1,1,22,0,00100.jpg 1,1,4,0,0,0,-600,41570,3,1,1.5,1,0.6623744450493203,0
Dyads,37,1,1,23,0,01001.jpg 1,1,3,0,0,0,-700,48691,3,1,1.5,1,0.7639526933143176,0
Dyads,37,1,1,24,0,00000.jpg 1,1,2,0,0,0,-800,6208,3,1,1.5,1,0.7088138005774569,0
Dyads,37,1,1,25,0,00000.jpg 1,1,1,0,0,1,-700,12944,3,1,1.5,1,0.7088138005774569,1
Dyads,37,1,1,26,0,00100.jpg 1,1,2,0,0,0,-800,14548,3,1,1.5,1,0.6623744450493203,0
Dyads,37,1,1,27,0,00110.jpg 1,2,2,0,1,1,-700,42757,3,1,1.5,1,0.5279754355733031,1
Dyads,37,1,1,28,0,01101.jpg 1,1,1,0,0,1,-600,14224,3,1,1.5,1,0.5839907347808587,1
Dyads,37,1,1,29,0,11111.jpg 1,4,4,1,1,1,-500,41543,3,1,1.5,1,0.6961821177765243,1
Dyads,37,1,1,30,0,00111.jpg 1,2,2,0,1,1,-400,29346,3,1,1.5,1,0.5542166877957073,1
Dyads,37,1,1,31,0,10000.jpg 1,1,3,0,0,0,-500,39244,3,1,1.5,1,0.4508997664989622,0
Dyads,37,1,1,32,0,10111.jpg 1,4,2,1,1,0,-600,47001,3,1,1.5,1,0.7076384082452015,0
Dyads,37,2,1,1,0,11001.jpg 2,2,1,0,1,0,-100,11090,3,1,1.5,1,0.5559718426000028,0
Dyads,37,2,1,2,0,10110.jpg 2,4,4,1,1,1,0,16624,3,1,1.5,1,0.5919658219622287,1
Dyads,37,2,1,3,0,10101.jpg 2,2,2,0,1,1,100,41767,3,1,1.5,1,0.5766367472957226,1
Dyads,37,2,1,4,0,00001.jpg 2,1,3,0,0,0,0,9831,3,1,1.5,1,0.6449057616167645,0
Dyads,37,2,1,5,0,11010.jpg 2,4,4,1,1,1,100,18542,3,1,1.5,1,0.41219789030457077,1
Dyads,37,2,1,6,0,01101.jpg 2,2,2,0,1,1,200,11225,3,1,1.5,1,0.5225121439028374,1
Dyads,37,2,1,7,0,10111.jpg 2,4,1,1,1,0,100,9944,3,1,1.5,1,0.8039219392367589,0
Dyads,37,2,1,8,0,11110.jpg 2,4,2,1,1,0,0,20272,3,1,1.5,1,0.6523653641492122,0
Dyads,37,2,1,9,0,10001.jpg 2,1,4,0,0,0,-100,19373,3,1,1.5,1,0.6271350733539595,0
Dyads,37,2,1,10,0,10111.jpg 2,4,1,1,1,0,-200,21741,3,1,1.5,1,0.8039219392367589,0
Dyads,37,2,1,11,0,00001.jpg 2,1,3,0,0,0,-300,44910,3,1,1.5,1,0.6449057616167645,0
Dyads,37,2,1,12,0,01111.jpg 2,4,4,1,1,1,-200,8107,3,1,1.5,1,0.5036468541794131,1
Dyads,37,2,1,13,0,01000.jpg 2,1,4,0,0,0,-300,10582,3,1,1.5,1,0.5492902993370307,0
Dyads,37,2,1,14,0,00011.jpg 2,3,3,1,0,1,-200,16103,3,1,1.5,1,0.6511844924434517,1
Dyads,37,2,1,15,0,00100.jpg 2,1,1,0,0,1,-100,34444,3,1,1.5,1,0.5202759066065534,1
Dyads,37,2,1,16,0,10100.jpg 2,2,2,0,1,1,0,17499,3,1,1.5,1,0.6252407314565371,1
Dyads,37,2,1,17,0,10100.jpg 2,2,2,0,1,1,100,10272,3,1,1.5,1,0.6252407314565371,1
Dyads,37,2,1,18,0,11111.jpg 2,4,2,1,1,0,0,7855,3,1,1.5,1,0.7042878815908372,0
Dyads,37,2,1,19,0,10010.jpg 2,3,3,1,0,1,100,15138,3,1,1.5,1,0.3948945020248261,1
Dyads,37,2,1,20,0,01111.jpg 2,4,4,1,1,1,200,34798,3,1,1.5,1,0.5036468541794131,1
Dyads,37,2,1,21,0,01010.jpg 2,3,3,1,0,1,300,6573,3,1,1.5,1,0.5427874282089004,1
Dyads,37,2,1,22,0,01011.jpg 2,3,3,1,0,1,400,3040,3,1,1.5,1,0.5431951323301476,1
Dyads,37,2,1,23,0,10101.jpg 2,2,2,0,1,1,500,9007,3,1,1.5,1,0.5766367472957226,1
Dyads,37,2,1,24,0,00111.jpg 2,3,3,1,0,1,600,5313,3,1,1.5,1,0.3347847008088003,1
Dyads,37,2,1,25,0,00100.jpg 2,1,4,0,0,0,500,89421,3,1,1.5,1,0.5202759066065534,0
Dyads,37,2,1,26,0,01001.jpg 2,1,4,0,0,0,400,11844,3,1,1.5,1,0.6129014409423154,0
Dyads,37,2,1,27,0,01100.jpg 2,2,2,0,1,1,500,16338,3,1,1.5,1,0.5756545884112536,1
Dyads,37,2,1,28,0,00010.jpg 2,3,3,1,0,1,600,4798,3,1,1.5,1,0.5361390266413651,1
Dyads,37,2,1,29,0,10011.jpg 2,3,3,1,0,1,700,5205,3,1,1.5,1,0.6621227598209525,1
Dyads,37,2,1,30,0,10110.jpg 2,4,4,1,1,1,800,35584,3,1,1.5,1,0.5919658219622287,1
Dyads,37,2,1,31,0,10111.jpg 2,4,4,1,1,1,900,8327,3,1,1.5,1,0.8039219392367589,1
Dyads,37,2,1,32,0,11010.jpg 2,4,4,1,1,1,1000,8090,3,1,1.5,1,0.41219789030457077,1
Dyads,37,3,1,1,0,00101.jpg 3,1,1,0,0,1,100,67796,3,1,1.5,1,0.3698581427267273,1
Dyads,37,3,1,2,0,00010.jpg 3,1,4,0,0,0,0,79917,3,1,1.5,1,0.4583949055748859,0
Dyads,37,3,1,3,0,11101.jpg 3,2,3,0,1,0,-100,36952,3,1,1.5,1,0.47762419691555474,0
Dyads,37,3,1,4,0,10010.jpg 3,1,4,0,0,0,-200,50738,3,1,1.5,1,0.25772657965034906,0
Dyads,37,3,1,5,0,11110.jpg 3,2,2,0,1,1,-100,14669,3,1,1.5,1,0.5017613870038423,1
Dyads,37,3,1,6,0,10100.jpg 3,1,2,0,0,0,-200,8091,3,1,1.5,1,0.22966548273626428,0
Dyads,37,3,1,7,0,01001.jpg 3,1,1,0,0,1,-100,22600,3,1,1.5,1,0.6658281350539164,1
Dyads,37,3,1,8,0,01011.jpg 3,3,1,1,0,0,-200,9873,3,1,1.5,1,0.37668682663760905,0
Dyads,37,3,1,9,0,01001.jpg 3,1,4,0,0,0,-300,26526,3,1,1.5,1,0.6658281350539164,0
Dyads,37,3,1,10,0,00101.jpg 3,1,1,0,0,1,-200,33793,3,1,1.5,1,0.3698581427267273,1
Dyads,37,3,1,11,0,10001.jpg 3,1,4,0,0,0,-300,37353,3,1,1.5,1,0.6166183570398625,0
Dyads,37,3,1,12,0,11110.jpg 3,2,2,0,1,1,-200,62772,3,1,1.5,1,0.5017613870038423,1
Dyads,37,3,1,13,0,01000.jpg 3,1,1,0,0,1,-100,10589,3,1,1.5,1,0.6289441637589013,1
Dyads,37,3,1,14,0,11100.jpg 3,2,2,0,1,1,0,4405,3,1,1.5,1,0.5505587042748261,1
Dyads,37,3,1,15,0,10101.jpg 3,2,2,0,1,1,100,13655,3,1,1.5,1,0.4979999588266018,1
Dyads,37,3,1,16,0,00111.jpg 3,3,3,1,0,1,200,19894,3,1,1.5,1,0.37570986904536596,1
Dyads,37,3,1,17,0,01100.jpg 3,2,2,0,1,1,300,5866,3,1,1.5,1,0.4740033547423424,1
Dyads,37,3,1,18,0,00110.jpg 3,1,3,0,0,0,200,7896,3,1,1.5,1,0.34780310660280656,0
Dyads,37,3,1,19,0,11000.jpg 3,1,2,0,0,0,100,53237,3,1,1.5,1,0.5216537256650365,0
Dyads,37,3,1,20,0,11011.jpg 3,4,4,1,1,1,200,15180,3,1,1.5,1,0.40141576680707053,1
Dyads,37,3,1,21,0,00011.jpg 3,3,1,1,0,0,100,19835,3,1,1.5,1,0.41261372863588347,0
Dyads,37,3,1,22,0,01101.jpg 3,2,2,0,1,1,200,20210,3,1,1.5,1,0.4489064773219297,1
Dyads,37,3,1,23,0,10000.jpg 3,1,4,0,0,0,100,9474,3,1,1.5,1,0.5270132223713673,0
Dyads,37,3,1,24,0,10101.jpg 3,2,2,0,1,1,200,15792,3,1,1.5,1,0.4979999588266018,1
Dyads,37,3,1,25,0,00111.jpg 3,3,3,1,0,1,300,7952,3,1,1.5,1,0.37570986904536596,1
Dyads,37,3,1,26,0,11111.jpg 3,4,2,1,1,0,200,6956,3,1,1.5,1,0.6233027745244488,0
Dyads,37,3,1,27,0,10111.jpg 3,4,4,1,1,1,300,19084,3,1,1.5,1,0.4706631706639047,1
Dyads,37,3,1,28,0,11110.jpg 3,2,2,0,1,1,400,9217,3,1,1.5,1,0.5017613870038423,1
Dyads,37,3,1,29,0,10110.jpg 3,2,1,0,1,0,300,14361,3,1,1.5,1,0.42103181663500466,0
Dyads,37,3,1,30,0,00111.jpg 3,3,1,1,0,0,200,18722,3,1,1.5,1,0.37570986904536596,0
Dyads,37,3,1,31,0,11100.jpg 3,2,2,0,1,1,300,5871,3,1,1.5,1,0.5505587042748261,1
Dyads,37,3,1,32,0,11001.jpg 3,2,2,0,1,1,400,4019,3,1,1.5,1,0.3651119959378436,1
Dyads,38,1,1,1,0,00010.jpg 1,2,3,0,1,0,-100,39472,1.5,1.5,1.5,1,0.6393627771751758,0
Dyads,38,1,1,2,0,01011.jpg 1,2,2,0,1,1,0,21032,1.5,1.5,1.5,1,0.7154564063409736,1
Dyads,38,1,1,3,0,01001.jpg 1,1,1,0,0,1,100,7775,1.5,1.5,1.5,1,0.72847945748406,1
Dyads,38,1,1,4,0,11101.jpg 1,3,4,1,0,0,0,13896,1.5,1.5,1.5,1,0.5813095504706992,0
Dyads,38,1,1,5,0,11110.jpg 1,4,4,1,1,1,100,11109,1.5,1.5,1.5,1,0.7133532367636465,1
Dyads,38,1,1,6,0,01101.jpg 1,1,2,0,0,0,0,15418,1.5,1.5,1.5,1,0.5378339387946497,0
Dyads,38,1,1,7,0,01000.jpg 1,1,1,0,0,1,100,7034,1.5,1.5,1.5,1,0.8211580187139856,1
Dyads,38,1,1,8,0,10011.jpg 1,2,4,0,1,0,0,16850,1.5,1.5,1.5,1,0.5552219866645418,0
Dyads,38,1,1,9,0,10100.jpg 1,3,1,1,0,0,-100,36760,1.5,1.5,1.5,1,0.6028693076902053,0
Dyads,38,1,1,10,0,01010.jpg 1,2,2,0,1,1,0,10291,1.5,1.5,1.5,1,0.6860727465809435,1
Dyads,38,1,1,11,0,11001.jpg 1,1,1,0,0,1,100,10985,1.5,1.5,1.5,1,0.5389419635279558,1
Dyads,38,1,1,12,0,00101.jpg 1,1,2,0,0,0,0,17762,1.5,1.5,1.5,1,0.5220566377630578,0
Dyads,38,1,1,13,0,10010.jpg 1,2,4,0,1,0,-100,10005,1.5,1.5,1.5,1,0.5407595015382602,0
Dyads,38,1,1,14,0,11001.jpg 1,1,1,0,0,1,0,6572,1.5,1.5,1.5,1,0.5389419635279558,1
Dyads,38,1,1,15,0,11001.jpg 1,1,1,0,0,1,100,7511,1.5,1.5,1.5,1,0.5389419635279558,1
Dyads,38,1,1,16,0,11010.jpg 1,2,2,0,1,1,200,6676,1.5,1.5,1.5,1,0.5030951406186507,1
Dyads,38,1,1,17,0,10010.jpg 1,2,2,0,1,1,300,5354,1.5,1.5,1.5,1,0.5407595015382602,1
Dyads,38,1,1,18,0,00000.jpg 1,1,3,0,0,0,200,12221,1.5,1.5,1.5,1,0.6686483177921926,0
Dyads,38,1,1,19,0,11010.jpg 1,2,2,0,1,1,300,5509,1.5,1.5,1.5,1,0.5030951406186507,1
Dyads,38,1,1,20,0,00011.jpg 1,2,2,0,1,1,400,6696,1.5,1.5,1.5,1,0.6605415255936636,1
Dyads,38,1,1,21,0,10111.jpg 1,4,4,1,1,1,500,7463,1.5,1.5,1.5,1,0.6673868751451589,1
Dyads,38,1,1,22,0,11100.jpg 1,3,3,1,0,1,600,6058,1.5,1.5,1.5,1,0.5266403879368037,1
Dyads,38,1,1,23,0,11100.jpg 1,3,3,1,0,1,700,2355,1.5,1.5,1.5,1,0.5266403879368037,1
Dyads,38,1,1,24,0,00100.jpg 1,1,3,0,0,0,600,4852,1.5,1.5,1.5,1,0.6192442204158598,0
Dyads,38,1,1,25,0,00110.jpg 1,2,3,0,1,0,500,29692,1.5,1.5,1.5,1,0.4811256548532023,0
Dyads,38,1,1,26,0,00100.jpg 1,1,1,0,0,1,600,24465,1.5,1.5,1.5,1,0.6192442204158598,1
Dyads,38,1,1,27,0,01111.jpg 1,2,4,0,1,0,500,12295,1.5,1.5,1.5,1,0.5910085205942556,0
Dyads,38,1,1,28,0,01110.jpg 1,2,2,0,1,1,600,6204,1.5,1.5,1.5,1,0.7110697493348637,1
Dyads,38,1,1,29,0,01100.jpg 1,1,1,0,0,1,700,6886,1.5,1.5,1.5,1,0.44350585761530775,1
Dyads,38,1,1,30,0,00100.jpg 1,1,1,0,0,1,800,9122,1.5,1.5,1.5,1,0.6192442204158598,1
Dyads,38,1,1,31,0,10000.jpg 1,1,3,0,0,0,700,5359,1.5,1.5,1.5,1,0.4050208212022017,0
Dyads,38,1,1,32,0,10101.jpg 1,3,1,1,0,0,600,15073,1.5,1.5,1.5,1,0.5179522377064709,0
Dyads,38,2,1,1,0,01010.jpg 2,3,2,1,0,0,-100,14264,1.5,1.5,1.5,1,0.41280362405063153,0
Dyads,38,2,1,2,0,11110.jpg 2,4,1,1,1,0,-200,16903,1.5,1.5,1.5,1,0.526349591086438,0
Dyads,38,2,1,3,0,11010.jpg 2,4,3,1,1,0,-300,4538,1.5,1.5,1.5,1,0.2934175032864515,0
Dyads,38,2,1,4,0,10110.jpg 2,4,4,1,1,1,-200,10908,1.5,1.5,1.5,1,0.46210811830748305,1
Dyads,38,2,1,5,0,11111.jpg 2,4,4,1,1,1,-100,5847,1.5,1.5,1.5,1,0.5851240065481662,1
Dyads,38,2,1,6,0,11111.jpg 2,4,4,1,1,1,0,4054,1.5,1.5,1.5,1,0.5851240065481662,1
Dyads,38,2,1,7,0,01011.jpg 2,3,2,1,0,0,-100,4107,1.5,1.5,1.5,1,0.41320192998443145,0
Dyads,38,2,1,8,0,10100.jpg 2,2,3,0,1,0,-200,31023,1.5,1.5,1.5,1,0.4969740935968948,0
Dyads,38,2,1,9,0,11111.jpg 2,4,4,1,1,1,-100,7577,1.5,1.5,1.5,1,0.5851240065481662,1
Dyads,38,2,1,10,0,01111.jpg 2,4,3,1,1,0,-200,13033,1.5,1.5,1.5,1,0.3753414642610384,0
Dyads,38,2,1,11,0,00000.jpg 2,1,2,0,0,0,-300,7014,1.5,1.5,1.5,1,0.5860539183477055,0
Dyads,38,2,1,12,0,11001.jpg 2,2,3,0,1,0,-400,15055,1.5,1.5,1.5,1,0.42577091457102023,0
Dyads,38,2,1,13,0,10111.jpg 2,4,4,1,1,1,-300,3486,1.5,1.5,1.5,1,0.7082774414649623,1
Dyads,38,2,1,14,0,11101.jpg 2,2,2,0,1,1,-200,7762,1.5,1.5,1.5,1,0.4864929311074104,1
Dyads,38,2,1,15,0,01100.jpg 2,2,2,0,1,1,-100,4205,1.5,1.5,1.5,1,0.4454686136645611,1
Dyads,38,2,1,16,0,11110.jpg 2,4,4,1,1,1,0,7628,1.5,1.5,1.5,1,0.526349591086438,1
Dyads,38,2,1,17,0,01001.jpg 2,1,2,0,0,0,-100,4108,1.5,1.5,1.5,1,0.48389760940393917,0
Dyads,38,2,1,18,0,01010.jpg 2,3,4,1,0,0,-200,23199,1.5,1.5,1.5,1,0.41280362405063153,0
Dyads,38,2,1,19,0,11010.jpg 2,4,3,1,1,0,-300,5082,1.5,1.5,1.5,1,0.2934175032864515,0
Dyads,38,2,1,20,0,11010.jpg 2,4,4,1,1,1,-200,1709,1.5,1.5,1.5,1,0.2934175032864515,1
Dyads,38,2,1,21,0,00110.jpg 2,3,4,1,0,0,-300,12120,1.5,1.5,1.5,1,0.3294586547759924,0
Dyads,38,2,1,22,0,10001.jpg 2,1,1,0,0,1,-200,9253,1.5,1.5,1.5,1,0.49899726842367853,1
Dyads,38,2,1,23,0,00001.jpg 2,1,1,0,0,1,-100,7875,1.5,1.5,1.5,1,0.5181830618678865,1
Dyads,38,2,1,24,0,10111.jpg 2,4,3,1,1,0,-200,7865,1.5,1.5,1.5,1,0.7082774414649623,0
Dyads,38,2,1,25,0,01101.jpg 2,2,2,0,1,1,-100,3590,1.5,1.5,1.5,1,0.393208042390962,1
Dyads,38,2,1,26,0,00100.jpg 2,1,1,0,0,1,0,2599,1.5,1.5,1.5,1,0.39107195836019165,1
Dyads,38,2,1,27,0,10110.jpg 2,4,4,1,1,1,100,2289,1.5,1.5,1.5,1,0.46210811830748305,1
Dyads,38,2,1,28,0,01001.jpg 2,1,2,0,0,0,0,1941,1.5,1.5,1.5,1,0.48389760940393917,0
Dyads,38,2,1,29,0,10101.jpg 2,2,1,0,1,0,-100,5216,1.5,1.5,1.5,1,0.4464623493739073,0
Dyads,38,2,1,30,0,00011.jpg 2,3,3,1,0,1,0,8503,1.5,1.5,1.5,1,0.5250523039480198,1
Dyads,38,2,1,31,0,00101.jpg 2,1,1,0,0,1,100,4397,1.5,1.5,1.5,1,0.4014561114023384,1
Dyads,38,2,1,32,0,11011.jpg 2,4,4,1,1,1,200,3918,1.5,1.5,1.5,1,0.24214173386925436,1
Dyads,38,3,1,1,0,10010.jpg 3,1,2,0,0,0,-100,13095,1.5,1.5,1.5,1,0.10001375351365412,0
Dyads,38,3,1,2,0,01010.jpg 3,1,2,0,0,0,-200,11604,1.5,1.5,1.5,1,0.21417176542070002,0
Dyads,38,3,1,3,0,00110.jpg 3,1,1,0,0,1,-100,3076,1.5,1.5,1.5,1,0.14579579239757082,1
Dyads,38,3,1,4,0,11111.jpg 3,4,1,1,1,0,-200,5075,1.5,1.5,1.5,1,0.3462276462910693,0
Dyads,38,3,1,5,0,00001.jpg 3,1,3,0,0,0,-300,5005,1.5,1.5,1.5,1,0.5034563083321268,0
Dyads,38,3,1,6,0,11100.jpg 3,2,3,0,1,0,-400,8823,1.5,1.5,1.5,1,0.2816432696970347,0
Dyads,38,3,1,7,0,10101.jpg 3,2,2,0,1,1,-300,13663,1.5,1.5,1.5,1,0.24099108808650102,1
Dyads,38,3,1,8,0,10110.jpg 3,2,1,0,1,0,-400,3348,1.5,1.5,1.5,1,0.18880519217083738,0
Dyads,38,3,1,9,0,01010.jpg 3,1,3,0,0,0,-500,19167,1.5,1.5,1.5,1,0.21417176542070002,0
Dyads,38,3,1,10,0,10011.jpg 3,3,4,1,0,0,-600,17058,1.5,1.5,1.5,1,0.16241187785775735,0
Dyads,38,3,1,11,0,00011.jpg 3,3,1,1,0,0,-700,8512,1.5,1.5,1.5,1,0.1835581574130889,0
Dyads,38,3,1,12,0,01110.jpg 3,2,2,0,1,1,-600,7605,1.5,1.5,1.5,1,0.1825297106465814,1
Dyads,38,3,1,13,0,00100.jpg 3,1,4,0,0,0,-700,8726,1.5,1.5,1.5,1,0.2708572439073619,0
Dyads,38,3,1,14,0,01100.jpg 3,2,3,0,1,0,-800,5849,1.5,1.5,1.5,1,0.22385622388554552,0
Dyads,38,3,1,15,0,11111.jpg 3,4,2,1,1,0,-900,9768,1.5,1.5,1.5,1,0.3462276462910693,0
Dyads,38,3,1,16,0,01011.jpg 3,3,1,1,0,0,-1000,9848,1.5,1.5,1.5,1,0.16207243518493028,0
Dyads,38,3,1,17,0,11001.jpg 3,2,1,0,1,0,-1100,10558,1.5,1.5,1.5,1,0.1554476342327313,0
Dyads,38,3,1,18,0,10110.jpg 3,2,2,0,1,1,-1000,12329,1.5,1.5,1.5,1,0.18880519217083738,1
Dyads,38,3,1,19,0,10001.jpg 3,1,3,0,0,0,-1100,4420,1.5,1.5,1.5,1,0.3398340076934879,0
Dyads,38,3,1,20,0,01000.jpg 3,1,3,0,0,0,-1200,4076,1.5,1.5,1.5,1,0.35170264138017854,0
Dyads,38,3,1,21,0,10111.jpg 3,4,2,1,1,0,-1300,2915,1.5,1.5,1.5,1,0.22153634994564583,0
Dyads,38,3,1,22,0,00111.jpg 3,3,4,1,0,0,-1400,8388,1.5,1.5,1.5,1,0.1615078662722525,0
Dyads,38,3,1,23,0,10101.jpg 3,2,2,0,1,1,-1300,7853,1.5,1.5,1.5,1,0.24099108808650102,1
Dyads,38,3,1,24,0,11010.jpg 3,2,1,0,1,0,-1400,7676,1.5,1.5,1.5,1,0.2005822827880358,0
Dyads,38,3,1,25,0,11110.jpg 3,2,2,0,1,1,-1300,4666,1.5,1.5,1.5,1,0.24375389299798791,1
Dyads,38,3,1,26,0,11101.jpg 3,2,1,0,1,0,-1400,13768,1.5,1.5,1.5,1,0.22638865203961964,0
Dyads,38,3,1,27,0,00111.jpg 3,3,4,1,0,0,-1500,4474,1.5,1.5,1.5,1,0.1615078662722525,0
Dyads,38,3,1,28,0,01110.jpg 3,2,4,0,1,0,-1600,5960,1.5,1.5,1.5,1,0.1825297106465814,0
Dyads,38,3,1,29,0,01101.jpg 3,2,3,0,1,0,-1700,12643,1.5,1.5,1.5,1,0.20679671014764947,0
Dyads,38,3,1,30,0,01001.jpg 3,1,3,0,0,0,-1800,4361,1.5,1.5,1.5,1,0.3893899627059739,0
Dyads,38,3,1,31,0,00001.jpg 3,1,1,0,0,1,-1700,2796,1.5,1.5,1.5,1,0.5034563083321268,1
Dyads,38,3,1,32,0,01000.jpg 3,1,1,0,0,1,-1600,4332,1.5,1.5,1.5,1,0.35170264138017854,1
Dyads,39,1,1,1,0,10111.jpg 1,4,3,1,1,0,-100,21396,4,3,3,1.5,0.731990037003057,0
Dyads,39,1,1,2,0,00000.jpg 1,1,4,0,0,0,-200,24180,4,3,3,1.5,0.7331044525620071,0
Dyads,39,1,1,3,0,00000.jpg 1,1,1,0,0,1,-100,8525,4,3,3,1.5,0.7331044525620071,1
Dyads,39,1,1,4,0,01110.jpg 1,2,2,0,1,1,0,13608,4,3,3,1.5,0.7701110021017347,1
Dyads,39,1,1,5,0,11000.jpg 1,1,3,0,0,0,-100,11761,4,3,3,1.5,0.6882435660760321,0
Dyads,39,1,1,6,0,00010.jpg 1,2,2,0,1,1,0,14714,4,3,3,1.5,0.7070195355314761,1
Dyads,39,1,1,7,0,11011.jpg 1,2,4,0,1,0,-100,10173,4,3,3,1.5,0.4834130599969605,0
Dyads,39,1,1,8,0,10011.jpg 1,2,2,0,1,1,0,1680,4,3,3,1.5,0.6295170640134278,1
Dyads,39,1,1,9,0,10110.jpg 1,4,2,1,1,0,-100,1742,4,3,3,1.5,0.6231812087450855,0
Dyads,39,1,1,10,0,01000.jpg 1,1,1,0,0,1,0,19391,4,3,3,1.5,0.8620671038288578,1
Dyads,39,1,1,11,0,10010.jpg 1,2,2,0,1,1,100,3800,4,3,3,1.5,0.6157986965875186,1
Dyads,39,1,1,12,0,11111.jpg 1,4,4,1,1,1,200,6209,4,3,3,1.5,0.721111902170306,1
Dyads,39,1,1,13,0,10101.jpg 1,3,3,1,0,1,300,3057,4,3,3,1.5,0.5939195806044405,1
Dyads,39,1,1,14,0,10100.jpg 1,3,1,1,0,0,200,6999,4,3,3,1.5,0.6738802732383771,0
Dyads,39,1,1,15,0,00110.jpg 1,2,4,0,1,0,100,5528,4,3,3,1.5,0.5579434019574284,0
Dyads,39,1,1,16,0,10110.jpg 1,4,4,1,1,1,200,19596,4,3,3,1.5,0.6231812087450855,1
Dyads,39,1,1,17,0,01000.jpg 1,1,1,0,0,1,300,4740,4,3,3,1.5,0.8620671038288578,1
Dyads,39,1,1,18,0,10000.jpg 1,1,3,0,0,0,200,7528,4,3,3,1.5,0.4809504600329546,0
Dyads,39,1,1,19,0,00001.jpg 1,1,3,0,0,0,100,17107,4,3,3,1.5,0.726655955846621,0
Dyads,39,1,1,20,0,01100.jpg 1,1,3,0,0,0,0,7455,4,3,3,1.5,0.5203405777810223,0
Dyads,39,1,1,21,0,01111.jpg 1,2,4,0,1,0,-100,7050,4,3,3,1.5,0.6629546255969612,0
Dyads,39,1,1,22,0,10101.jpg 1,3,3,1,0,1,0,7476,4,3,3,1.5,0.5939195806044405,1
Dyads,39,1,1,23,0,10011.jpg 1,2,2,0,1,1,100,7458,4,3,3,1.5,0.6295170640134278,1
Dyads,39,1,1,24,0,11001.jpg 1,1,1,0,0,1,200,4640,4,3,3,1.5,0.6140661882197942,1
Dyads,39,1,1,25,0,00001.jpg 1,1,1,0,0,1,300,5056,4,3,3,1.5,0.726655955846621,1
Dyads,39,1,1,26,0,11000.jpg 1,1,1,0,0,1,400,25366,4,3,3,1.5,0.6882435660760321,1
Dyads,39,1,1,27,0,00010.jpg 1,2,2,0,1,1,500,5410,4,3,3,1.5,0.7070195355314761,1
Dyads,39,1,1,28,0,11010.jpg 1,2,2,0,1,1,600,7330,4,3,3,1.5,0.579503024592043,1
Dyads,39,1,1,29,0,01000.jpg 1,1,1,0,0,1,700,2982,4,3,3,1.5,0.8620671038288578,1
Dyads,39,1,1,30,0,00101.jpg 1,1,3,0,0,0,600,16663,4,3,3,1.5,0.5978793288862304,0
Dyads,39,1,1,31,0,01001.jpg 1,1,1,0,0,1,700,5453,4,3,3,1.5,0.7850386153241667,1
Dyads,39,1,1,32,0,11101.jpg 1,3,1,1,0,0,600,1821,4,3,3,1.5,0.6539628522005939,0
Dyads,39,2,1,1,0,01010.jpg 2,3,3,1,0,1,100,20168,4,3,3,1.5,0.514010413783439,1
Dyads,39,2,1,2,0,00100.jpg 2,1,2,0,0,0,0,8028,4,3,3,1.5,0.4914096251014536,0
Dyads,39,2,1,3,0,00000.jpg 2,1,1,0,0,1,100,7354,4,3,3,1.5,0.6805106886343413,1
Dyads,39,2,1,4,0,10100.jpg 2,2,2,0,1,1,200,9413,4,3,3,1.5,0.5978079573484723,1
Dyads,39,2,1,5,0,01101.jpg 2,2,1,0,1,0,100,9630,4,3,3,1.5,0.4936494639543379,0
Dyads,39,2,1,6,0,00011.jpg 2,3,3,1,0,1,200,4316,4,3,3,1.5,0.6245103139568602,1
Dyads,39,2,1,7,0,10000.jpg 2,1,2,0,0,0,100,4505,4,3,3,1.5,0.36325426238621683,0
Dyads,39,2,1,8,0,00001.jpg 2,1,1,0,0,1,200,11670,4,3,3,1.5,0.6180330803981758,1
Dyads,39,2,1,9,0,11000.jpg 2,2,1,0,1,0,100,3387,4,3,3,1.5,0.4339869734758847,0
Dyads,39,2,1,10,0,11011.jpg 2,4,3,1,1,0,0,5902,4,3,3,1.5,0.3246398893368841,0
Dyads,39,2,1,11,0,10101.jpg 2,2,2,0,1,1,100,12865,4,3,3,1.5,0.5482169316171139,1
Dyads,39,2,1,12,0,11100.jpg 2,2,2,0,1,1,200,32878,4,3,3,1.5,0.4238438067477173,1
Dyads,39,2,1,13,0,10011.jpg 2,3,3,1,0,1,300,2260,4,3,3,1.5,0.6358172398516833,1
Dyads,39,2,1,14,0,10001.jpg 2,1,2,0,0,0,200,11091,4,3,3,1.5,0.5997521988751618,0
Dyads,39,2,1,15,0,11000.jpg 2,2,1,0,1,0,100,6143,4,3,3,1.5,0.4339869734758847,0
Dyads,39,2,1,16,0,01110.jpg 2,4,2,1,1,0,0,4268,4,3,3,1.5,0.45399109163097523,0
Dyads,39,2,1,17,0,01101.jpg 2,2,2,0,1,1,100,2328,4,3,3,1.5,0.4936494639543379,1
Dyads,39,2,1,18,0,01011.jpg 2,3,3,1,0,1,200,1882,4,3,3,1.5,0.5144208224954501,1
Dyads,39,2,1,19,0,00100.jpg 2,1,2,0,0,0,100,2545,4,3,3,1.5,0.4914096251014536,0
Dyads,39,2,1,20,0,10100.jpg 2,2,2,0,1,1,200,4011,4,3,3,1.5,0.5978079573484723,1
Dyads,39,2,1,21,0,00110.jpg 2,3,4,1,0,0,100,4388,4,3,3,1.5,0.42502199799921897,0
Dyads,39,2,1,22,0,11010.jpg 2,4,4,1,1,1,200,4211,4,3,3,1.5,0.38452162039142096,1
Dyads,39,2,1,23,0,01001.jpg 2,1,1,0,0,1,300,10947,4,3,3,1.5,0.5851647062776327,1
Dyads,39,2,1,24,0,01100.jpg 2,2,1,0,1,0,200,13798,4,3,3,1.5,0.5472206112297404,0
Dyads,39,2,1,25,0,11111.jpg 2,4,3,1,1,0,100,5183,4,3,3,1.5,0.6796769902371884,0
Dyads,39,2,1,26,0,00101.jpg 2,1,2,0,0,0,0,3808,4,3,3,1.5,0.5022604856350168,0
Dyads,39,2,1,27,0,10001.jpg 2,1,2,0,0,0,-100,3887,4,3,3,1.5,0.5997521988751618,0
Dyads,39,2,1,28,0,00110.jpg 2,3,4,1,0,0,-200,5580,4,3,3,1.5,0.42502199799921897,0
Dyads,39,2,1,29,0,01001.jpg 2,1,1,0,0,1,-100,5389,4,3,3,1.5,0.5851647062776327,1
Dyads,39,2,1,30,0,11010.jpg 2,4,3,1,1,0,-200,3599,4,3,3,1.5,0.38452162039142096,0
Dyads,39,2,1,31,0,10111.jpg 2,4,3,1,1,0,-300,10085,4,3,3,1.5,0.7850726701131167,0
Dyads,39,2,1,32,0,11000.jpg 2,2,1,0,1,0,-400,7962,4,3,3,1.5,0.4339869734758847,0
Dyads,39,3,1,1,0,10111.jpg 3,4,4,1,1,1,100,3984,4,3,3,1.5,0.33956749237111294,1
Dyads,39,3,1,2,0,01010.jpg 3,1,2,0,0,0,0,5903,4,3,3,1.5,0.32994219841230016,0
Dyads,39,3,1,3,0,11100.jpg 3,2,1,0,1,0,-100,7843,4,3,3,1.5,0.4146411549759982,0
Dyads,39,3,1,4,0,10100.jpg 3,1,2,0,0,0,-200,2467,4,3,3,1.5,0.14704840466005464,0
Dyads,39,3,1,5,0,00111.jpg 3,3,3,1,0,1,-100,8424,4,3,3,1.5,0.25816308209227024,1
Dyads,39,3,1,6,0,11101.jpg 3,2,1,0,1,0,-200,5778,4,3,3,1.5,0.3458564572559242,0
Dyads,39,3,1,7,0,00011.jpg 3,3,2,1,0,0,-300,5666,4,3,3,1.5,0.2888633789838904,0
Dyads,39,3,1,8,0,01001.jpg 3,1,3,0,0,0,-400,8721,4,3,3,1.5,0.5353499747447125,0
Dyads,39,3,1,9,0,10110.jpg 3,2,4,0,1,0,-500,2836,4,3,3,1.5,0.29602913900154826,0
Dyads,39,3,1,10,0,11010.jpg 3,2,3,0,1,0,-600,4163,4,3,3,1.5,0.3119227283915408,0
Dyads,39,3,1,11,0,01000.jpg 3,1,2,0,0,0,-700,5701,4,3,3,1.5,0.49498766223094803,0
Dyads,39,3,1,12,0,11010.jpg 3,2,2,0,1,1,-600,6330,4,3,3,1.5,0.3119227283915408,1
Dyads,39,3,1,13,0,11110.jpg 3,2,2,0,1,1,-500,1645,4,3,3,1.5,0.3680260676867515,1
Dyads,39,3,1,14,0,11011.jpg 3,4,3,1,1,0,-600,5059,4,3,3,1.5,0.279426226465995,0
Dyads,39,3,1,15,0,01111.jpg 3,4,4,1,1,1,-500,4985,4,3,3,1.5,0.26821846089492835,1
Dyads,39,3,1,16,0,00100.jpg 3,1,1,0,0,1,-400,1361,4,3,3,1.5,0.40160928423989295,1
Dyads,39,3,1,17,0,00111.jpg 3,3,4,1,0,0,-500,4029,4,3,3,1.5,0.25816308209227024,0
Dyads,39,3,1,18,0,11100.jpg 3,2,1,0,1,0,-600,1323,4,3,3,1.5,0.4146411549759982,0
Dyads,39,3,1,19,0,01100.jpg 3,2,1,0,1,0,-700,1119,4,3,3,1.5,0.34257943436946103,0
Dyads,39,3,1,20,0,10100.jpg 3,1,2,0,0,0,-800,587,4,3,3,1.5,0.14704840466005464,0
Dyads,39,3,1,21,0,00110.jpg 3,1,4,0,0,0,-900,9419,4,3,3,1.5,0.23569111063971368,0
Dyads,39,3,1,22,0,11100.jpg 3,2,1,0,1,0,-1000,10419,4,3,3,1.5,0.4146411549759982,0
Dyads,39,3,1,23,0,10011.jpg 3,3,2,1,0,0,-1100,7236,4,3,3,1.5,0.2594407082045959,0
Dyads,39,3,1,24,0,10000.jpg 3,1,1,0,0,1,-1000,3730,4,3,3,1.5,0.3918406348287848,1
Dyads,39,3,1,25,0,01111.jpg 3,4,3,1,1,0,-1100,4710,4,3,3,1.5,0.26821846089492835,0
Dyads,39,3,1,26,0,10110.jpg 3,2,2,0,1,1,-1000,3704,4,3,3,1.5,0.29602913900154826,1
Dyads,39,3,1,27,0,10000.jpg 3,1,1,0,0,1,-900,7445,4,3,3,1.5,0.3918406348287848,1
Dyads,39,3,1,28,0,10001.jpg 3,1,2,0,0,0,-1000,1276,4,3,3,1.5,0.4818777877720858,0
Dyads,39,3,1,29,0,01100.jpg 3,2,1,0,1,0,-1100,1226,4,3,3,1.5,0.34257943436946103,0
Dyads,39,3,1,30,0,10001.jpg 3,1,1,0,0,1,-1000,1050,4,3,3,1.5,0.4818777877720858,1
Dyads,39,3,1,31,0,00101.jpg 3,1,2,0,0,0,-1100,1041,4,3,3,1.5,0.2533990381700107,0
Dyads,39,3,1,32,0,10101.jpg 3,2,1,0,1,0,-1200,808,4,3,3,1.5,0.3645336763264962,0
Dyads,40,1,1,1,0,10111.jpg 1,4,3,1,1,0,-100,13120,1.5,2.5,2.5,2,0.6915699154858029,0
Dyads,40,1,1,2,0,11001.jpg 1,1,3,0,0,0,-200,6235,1.5,2.5,2.5,2,0.5663963317286514,0
Dyads,40,1,1,3,0,00101.jpg 1,1,1,0,0,1,-100,5129,1.5,2.5,2.5,2,0.5496763340748058,1
Dyads,40,1,1,4,0,11111.jpg 1,4,4,1,1,1,0,3350,1.5,2.5,2.5,2,0.6797689139173554,1
Dyads,40,1,1,5,0,00110.jpg 1,2,4,0,1,0,-100,6839,1.5,2.5,2.5,2,0.5088855446910483,0
Dyads,40,1,1,6,0,11110.jpg 1,4,4,1,1,1,0,4487,1.5,2.5,2.5,2,0.7355186670792176,1
Dyads,40,1,1,7,0,11100.jpg 1,3,3,1,0,1,100,5107,1.5,2.5,2.5,2,0.5542213811988774,1
Dyads,40,1,1,8,0,00111.jpg 1,2,2,0,1,1,200,10216,1.5,2.5,2.5,2,0.5352538918493546,1
Dyads,40,1,1,9,0,10111.jpg 1,4,4,1,1,1,300,3602,1.5,2.5,2.5,2,0.6915699154858029,1
Dyads,40,1,1,10,0,10000.jpg 1,1,3,0,0,0,200,2641,1.5,2.5,2.5,2,0.43204590747864235,0
Dyads,40,1,1,11,0,00111.jpg 1,2,2,0,1,1,300,5215,1.5,2.5,2.5,2,0.5352538918493546,1
Dyads,40,1,1,12,0,11101.jpg 1,3,3,1,0,1,400,9951,1.5,2.5,2.5,2,0.6080757147442387,1
Dyads,40,1,1,13,0,00110.jpg 1,2,2,0,1,1,500,10675,1.5,2.5,2.5,2,0.5088855446910483,1
Dyads,40,1,1,14,0,10100.jpg 1,3,1,1,0,0,400,4385,1.5,2.5,2.5,2,0.629136506730757,0
Dyads,40,1,1,15,0,10110.jpg 1,4,3,1,1,0,300,2178,1.5,2.5,2.5,2,0.5758595751815008,0
Dyads,40,1,1,16,0,00001.jpg 1,1,2,0,0,0,200,4234,1.5,2.5,2.5,2,0.6857767050508734,0
Dyads,40,1,1,17,0,10000.jpg 1,1,1,0,0,1,300,13330,1.5,2.5,2.5,2,0.43204590747864235,1
Dyads,40,1,1,18,0,10010.jpg 1,2,3,0,1,0,200,11774,1.5,2.5,2.5,2,0.5681923555007558,0
Dyads,40,1,1,19,0,11111.jpg 1,4,4,1,1,1,300,5735,1.5,2.5,2.5,2,0.6797689139173554,1
Dyads,40,1,1,20,0,00010.jpg 1,2,3,0,1,0,200,3594,1.5,2.5,2.5,2,0.6645592459775661,0
Dyads,40,1,1,21,0,01010.jpg 1,2,2,0,1,1,300,1955,1.5,2.5,2.5,2,0.7094885931260746,1
Dyads,40,1,1,22,0,11101.jpg 1,3,3,1,0,1,400,3989,1.5,2.5,2.5,2,0.6080757147442387,1
Dyads,40,1,1,23,0,11110.jpg 1,4,4,1,1,1,500,3175,1.5,2.5,2.5,2,0.7355186670792176,1
Dyads,40,1,1,24,0,11000.jpg 1,1,1,0,0,1,600,13975,1.5,2.5,2.5,2,0.6444306465168036,1
Dyads,40,1,1,25,0,11100.jpg 1,3,3,1,0,1,700,5609,1.5,2.5,2.5,2,0.5542213811988774,1
Dyads,40,1,1,26,0,01100.jpg 1,1,1,0,0,1,800,4730,1.5,2.5,2.5,2,0.47106575231579767,1
Dyads,40,1,1,27,0,11001.jpg 1,1,3,0,0,0,700,4046,1.5,2.5,2.5,2,0.5663963317286514,0
Dyads,40,1,1,28,0,00100.jpg 1,1,1,0,0,1,800,1709,1.5,2.5,2.5,2,0.6450659945474625,1
Dyads,40,1,1,29,0,00100.jpg 1,1,2,0,0,0,700,7017,1.5,2.5,2.5,2,0.6450659945474625,0
Dyads,40,1,1,30,0,10001.jpg 1,1,3,0,0,0,600,5746,1.5,2.5,2.5,2,0.49639198229572706,0
Dyads,40,1,1,31,0,10101.jpg 1,3,1,1,0,0,500,1348,1.5,2.5,2.5,2,0.5456026738936055,0
Dyads,40,1,1,32,0,01111.jpg 1,2,2,0,1,1,600,4991,1.5,2.5,2.5,2,0.6175625631490864,1
Dyads,40,2,1,1,0,10010.jpg 2,3,1,1,0,0,-100,30750,1.5,2.5,2.5,2,0.34140796138224694,0
Dyads,40,2,1,2,0,01101.jpg 2,2,4,0,1,0,-200,3770,1.5,2.5,2.5,2,0.46502409685770174,0
Dyads,40,2,1,3,0,00011.jpg 2,3,2,1,0,0,-300,2085,1.5,2.5,2.5,2,0.5972471394482591,0
Dyads,40,2,1,4,0,00000.jpg 2,1,2,0,0,0,-400,4777,1.5,2.5,2.5,2,0.6550677717361699,0
Dyads,40,2,1,5,0,01011.jpg 2,3,4,1,0,0,-500,6186,1.5,2.5,2.5,2,0.48574644372771925,0
Dyads,40,2,1,6,0,01011.jpg 2,3,3,1,0,1,-400,1667,1.5,2.5,2.5,2,0.48574644372771925,1
Dyads,40,2,1,7,0,01110.jpg 2,4,3,1,1,0,-500,1442,1.5,2.5,2.5,2,0.425731868283166,0
Dyads,40,2,1,8,0,00100.jpg 2,1,3,0,0,0,-600,6015,1.5,2.5,2.5,2,0.46279543016023633,0
Dyads,40,2,1,9,0,11010.jpg 2,4,2,1,1,0,-700,1647,1.5,2.5,2.5,2,0.35775331942421734,0
Dyads,40,2,1,10,0,11000.jpg 2,2,1,0,1,0,-800,6812,1.5,2.5,2.5,2,0.40604693524285057,0
Dyads,40,2,1,11,0,01010.jpg 2,3,4,1,0,0,-900,2796,1.5,2.5,2.5,2,0.4853360464701094,0
Dyads,40,2,1,12,0,11111.jpg 2,4,4,1,1,1,-800,4220,1.5,2.5,2.5,2,0.654201417864207,1
Dyads,40,2,1,13,0,10110.jpg 2,4,4,1,1,1,-700,1443,1.5,2.5,2.5,2,0.5354046443415434,1
Dyads,40,2,1,14,0,00101.jpg 2,1,1,0,0,1,-600,5680,1.5,2.5,2.5,2,0.47360282491660566,1
Dyads,40,2,1,15,0,01000.jpg 2,1,3,0,0,0,-700,4312,1.5,2.5,2.5,2,0.4918911233834254,0
Dyads,40,2,1,16,0,10100.jpg 2,2,2,0,1,1,-600,5650,1.5,2.5,2.5,2,0.5699411129397164,1
Dyads,40,2,1,17,0,01000.jpg 2,1,1,0,0,1,-500,1018,1.5,2.5,2.5,2,0.4918911233834254,1
Dyads,40,2,1,18,0,00110.jpg 2,3,4,1,0,0,-600,970,1.5,2.5,2.5,2,0.3972540435239648,0
Dyads,40,2,1,19,0,01001.jpg 2,1,1,0,0,1,-500,6266,1.5,2.5,2.5,2,0.5570709048913216,1
Dyads,40,2,1,20,0,00010.jpg 2,3,3,1,0,1,-400,7355,1.5,2.5,2.5,2,0.4786546431871159,1
Dyads,40,2,1,21,0,00001.jpg 2,1,1,0,0,1,-300,885,1.5,2.5,2.5,2,0.5906079094178789,1
Dyads,40,2,1,22,0,10000.jpg 2,1,2,0,0,0,-400,2482,1.5,2.5,2.5,2,0.33715546014394443,0
Dyads,40,2,1,23,0,11101.jpg 2,2,2,0,1,1,-300,1056,1.5,2.5,2.5,2,0.5596331248825539,1
Dyads,40,2,1,24,0,00110.jpg 2,3,4,1,0,0,-400,5814,1.5,2.5,2.5,2,0.3972540435239648,0
Dyads,40,2,1,25,0,10110.jpg 2,4,3,1,1,0,-500,798,1.5,2.5,2.5,2,0.5354046443415434,0
Dyads,40,2,1,26,0,11001.jpg 2,2,2,0,1,1,-400,3469,1.5,2.5,2.5,2,0.49864692691380175,1
Dyads,40,2,1,27,0,11011.jpg 2,4,1,1,1,0,-500,8627,1.5,2.5,2.5,2,0.30000826994080737,0
Dyads,40,2,1,28,0,01111.jpg 2,4,4,1,1,1,-400,7097,1.5,2.5,2.5,2,0.44629440278881755,1
Dyads,40,2,1,29,0,00011.jpg 2,3,3,1,0,1,-300,6758,1.5,2.5,2.5,2,0.5972471394482591,1
Dyads,40,2,1,30,0,10001.jpg 2,1,1,0,0,1,-200,2161,1.5,2.5,2.5,2,0.571923602176939,1
Dyads,40,2,1,31,0,01110.jpg 2,4,4,1,1,1,-100,3267,1.5,2.5,2.5,2,0.425731868283166,1
Dyads,40,2,1,32,0,11011.jpg 2,4,3,1,1,0,-200,10169,1.5,2.5,2.5,2,0.30000826994080737,0
Dyads,40,3,1,1,0,01011.jpg 3,3,3,1,0,1,100,10796,1.5,2.5,2.5,2,0.2659777890811233,1
Dyads,40,3,1,2,0,00100.jpg 3,1,4,0,0,0,0,9301,1.5,2.5,2.5,2,0.4103506934071546,0
Dyads,40,3,1,3,0,11001.jpg 3,2,1,0,1,0,-100,5850,1.5,2.5,2.5,2,0.25640543684497896,0
Dyads,40,3,1,4,0,11110.jpg 3,2,2,0,1,1,0,6104,1.5,2.5,2.5,2,0.3764964194420974,1
Dyads,40,3,1,5,0,00011.jpg 3,3,3,1,0,1,100,2189,1.5,2.5,2.5,2,0.29636617447850677,1
Dyads,40,3,1,6,0,00101.jpg 3,1,2,0,0,0,0,8135,1.5,2.5,2.5,2,0.2603178893657653,0
Dyads,40,3,1,7,0,01010.jpg 3,1,3,0,0,0,-100,1497,1.5,2.5,2.5,2,0.3380048259972864,0
Dyads,40,3,1,8,0,00111.jpg 3,3,4,1,0,0,-200,8487,1.5,2.5,2.5,2,0.26516581244070414,0
Dyads,40,3,1,9,0,00010.jpg 3,1,3,0,0,0,-300,2627,1.5,2.5,2.5,2,0.3366413611690228,0
Dyads,40,3,1,10,0,01010.jpg 3,1,1,0,0,1,-200,706,1.5,2.5,2.5,2,0.3380048259972864,1
Dyads,40,3,1,11,0,10100.jpg 3,1,2,0,0,0,-300,2575,1.5,2.5,2.5,2,0.15165327722997146,0
Dyads,40,3,1,12,0,11101.jpg 3,2,1,0,1,0,-400,2792,1.5,2.5,2.5,2,0.35410245919150196,0
Dyads,40,3,1,13,0,10111.jpg 3,4,1,1,1,0,-500,11122,1.5,2.5,2.5,2,0.3477432610486615,0
Dyads,40,3,1,14,0,01110.jpg 3,2,3,0,1,0,-600,10420,1.5,2.5,2.5,2,0.2949340045381949,0
Dyads,40,3,1,15,0,00000.jpg 3,1,2,0,0,0,-700,3835,1.5,2.5,2.5,2,0.5054327714079365,0
Dyads,40,3,1,16,0,00001.jpg 3,1,1,0,0,1,-600,9867,1.5,2.5,2.5,2,0.6551121754760325,1
Dyads,40,3,1,17,0,01010.jpg 3,1,1,0,0,1,-500,1657,1.5,2.5,2.5,2,0.3380048259972864,1
Dyads,40,3,1,18,0,11011.jpg 3,4,3,1,1,0,-600,1040,1.5,2.5,2.5,2,0.2867827548389337,0
Dyads,40,3,1,19,0,11111.jpg 3,4,4,1,1,1,-500,1349,1.5,2.5,2.5,2,0.4980247847662774,1
Dyads,40,3,1,20,0,11101.jpg 3,2,2,0,1,1,-400,2519,1.5,2.5,2.5,2,0.35410245919150196,1
Dyads,40,3,1,21,0,01111.jpg 3,4,3,1,1,0,-500,4539,1.5,2.5,2.5,2,0.2753926907922608,0
Dyads,40,3,1,22,0,11100.jpg 3,2,1,0,1,0,-600,6556,1.5,2.5,2.5,2,0.4234654827665713,0
Dyads,40,3,1,23,0,10100.jpg 3,1,2,0,0,0,-700,878,1.5,2.5,2.5,2,0.15165327722997146,0
Dyads,40,3,1,24,0,10110.jpg 3,2,2,0,1,1,-600,7124,1.5,2.5,2.5,2,0.30363858560050416,1
Dyads,40,3,1,25,0,01101.jpg 3,2,3,0,1,0,-700,5167,1.5,2.5,2.5,2,0.3281462035969029,0
Dyads,40,3,1,26,0,01000.jpg 3,1,1,0,0,1,-600,2154,1.5,2.5,2.5,2,0.5040495068959568,1
Dyads,40,3,1,27,0,01101.jpg 3,2,2,0,1,1,-500,1549,1.5,2.5,2.5,2,0.3281462035969029,1
Dyads,40,3,1,28,0,11111.jpg 3,4,4,1,1,1,-400,2023,1.5,2.5,2.5,2,0.4980247847662774,1
Dyads,40,3,1,29,0,11100.jpg 3,2,2,0,1,1,-300,1486,1.5,2.5,2.5,2,0.4234654827665713,1
Dyads,40,3,1,30,0,10011.jpg 3,3,3,1,0,1,-200,1051,1.5,2.5,2.5,2,0.2664656461483819,1
Dyads,40,3,1,31,0,11100.jpg 3,2,2,0,1,1,-100,682,1.5,2.5,2.5,2,0.4234654827665713,1
Dyads,40,3,1,32,0,00100.jpg 3,1,2,0,0,0,-200,848,1.5,2.5,2.5,2,0.4103506934071546,0
Dyads,41,1,1,1,0,00111.jpg 1,2,4,0,1,0,-100,4538,2,1.5,4,1,0.6686954473687238,0
Dyads,41,1,1,2,0,10001.jpg 1,1,3,0,0,0,-200,4084,2,1.5,4,1,0.633348357098873,0
Dyads,41,1,1,3,0,00101.jpg 1,1,2,0,0,0,-300,5369,2,1.5,4,1,0.6814413888078729,0
Dyads,41,1,1,4,0,10010.jpg 1,2,2,0,1,1,-200,10667,2,1.5,4,1,0.6975209473413804,1
Dyads,41,1,1,5,0,00110.jpg 1,2,4,0,1,0,-300,9239,2,1.5,4,1,0.6448749966833708,0
Dyads,41,1,1,6,0,01110.jpg 1,2,2,0,1,1,-200,4935,2,1.5,4,1,0.8281689040654413,1
Dyads,41,1,1,7,0,11000.jpg 1,1,1,0,0,1,-100,6610,2,1.5,4,1,0.7605482491441219,1
Dyads,41,1,1,8,0,11100.jpg 1,3,3,1,0,1,0,9771,2,1.5,4,1,0.6854176506576413,1
Dyads,41,1,1,9,0,00001.jpg 1,1,1,0,0,1,100,8838,2,1.5,4,1,0.7927346891638842,1
Dyads,41,1,1,10,0,11111.jpg 1,4,2,1,1,0,0,3085,2,1.5,4,1,0.7881401156746229,0
Dyads,41,1,1,11,0,01000.jpg 1,1,1,0,0,1,100,3666,2,1.5,4,1,0.899919715786219,1
Dyads,41,1,1,12,0,11000.jpg 1,1,1,0,0,1,200,9336,2,1.5,4,1,0.7605482491441219,1
Dyads,41,1,1,13,0,01001.jpg 1,1,3,0,0,0,100,7132,2,1.5,4,1,0.8401092997599771,0
Dyads,41,1,1,14,0,00010.jpg 1,2,2,0,1,1,200,3103,2,1.5,4,1,0.776384426738387,1
Dyads,41,1,1,15,0,11000.jpg 1,1,1,0,0,1,300,2100,2,1.5,4,1,0.7605482491441219,1
Dyads,41,1,1,16,0,11001.jpg 1,1,1,0,0,1,400,2434,2,1.5,4,1,0.6959750157371046,1
Dyads,41,1,1,17,0,01100.jpg 1,1,3,0,0,0,300,15641,2,1.5,4,1,0.6094912653406789,0
Dyads,41,1,1,18,0,00010.jpg 1,2,2,0,1,1,400,3176,2,1.5,4,1,0.776384426738387,1
Dyads,41,1,1,19,0,11010.jpg 1,2,2,0,1,1,500,4715,2,1.5,4,1,0.6647424515943422,1
Dyads,41,1,1,20,0,10001.jpg 1,1,4,0,0,0,400,5390,2,1.5,4,1,0.633348357098873,0
Dyads,41,1,1,21,0,10000.jpg 1,1,1,0,0,1,500,4701,2,1.5,4,1,0.5713918140352506,1
Dyads,41,1,1,22,0,11010.jpg 1,2,2,0,1,1,600,3260,2,1.5,4,1,0.6647424515943422,1
Dyads,41,1,1,23,0,01110.jpg 1,2,4,0,1,0,500,5467,2,1.5,4,1,0.8281689040654413,0
Dyads,41,1,1,24,0,01001.jpg 1,1,1,0,0,1,600,3552,2,1.5,4,1,0.8401092997599771,1
Dyads,41,1,1,25,0,10001.jpg 1,1,1,0,0,1,700,2028,2,1.5,4,1,0.633348357098873,1
Dyads,41,1,1,26,0,10101.jpg 1,3,1,1,0,0,600,8259,2,1.5,4,1,0.6778611365969657,0
Dyads,41,1,1,27,0,01011.jpg 1,2,2,0,1,1,700,1474,2,1.5,4,1,0.8311997555353104,1
Dyads,41,1,1,28,0,10110.jpg 1,4,2,1,1,0,600,1479,2,1.5,4,1,0.7040877364906709,0
Dyads,41,1,1,29,0,00111.jpg 1,2,4,0,1,0,500,2388,2,1.5,4,1,0.6686954473687238,0
Dyads,41,1,1,30,0,01100.jpg 1,1,1,0,0,1,600,2381,2,1.5,4,1,0.6094912653406789,1
Dyads,41,1,1,31,0,10000.jpg 1,1,3,0,0,0,500,10583,2,1.5,4,1,0.5713918140352506,0
Dyads,41,1,1,32,0,11100.jpg 1,3,1,1,0,0,400,1176,2,1.5,4,1,0.6854176506576413,0
Dyads,41,2,1,1,0,01001.jpg 2,1,2,0,0,0,-100,7744,2,1.5,4,1,0.7337152805564348,0
Dyads,41,2,1,2,0,00001.jpg 2,1,1,0,0,1,0,3234,2,1.5,4,1,0.7596480855789594,1
Dyads,41,2,1,3,0,10100.jpg 2,2,3,0,1,0,-100,2660,2,1.5,4,1,0.7438131905025681,0
Dyads,41,2,1,4,0,01111.jpg 2,4,3,1,1,0,-200,2970,2,1.5,4,1,0.6384441811388984,0
Dyads,41,2,1,5,0,00100.jpg 2,1,2,0,0,0,-300,10579,2,1.5,4,1,0.6536626885621246,0
Dyads,41,2,1,6,0,00110.jpg 2,3,4,1,0,0,-400,8139,2,1.5,4,1,0.590819043516174,0
Dyads,41,2,1,7,0,00000.jpg 2,1,1,0,0,1,-300,2942,2,1.5,4,1,0.8062246385497188,1
Dyads,41,2,1,8,0,11001.jpg 2,2,2,0,1,1,-200,3082,2,1.5,4,1,0.6854343244170109,1
Dyads,41,2,1,9,0,01001.jpg 2,1,2,0,0,0,-300,1848,2,1.5,4,1,0.7337152805564348,0
Dyads,41,2,1,10,0,10101.jpg 2,2,2,0,1,1,-200,3879,2,1.5,4,1,0.7032895810198758,1
Dyads,41,2,1,11,0,01011.jpg 2,3,1,1,0,0,-300,3805,2,1.5,4,1,0.6741998527990276,0
Dyads,41,2,1,12,0,00001.jpg 2,1,1,0,0,1,-200,2637,2,1.5,4,1,0.7596480855789594,1
Dyads,41,2,1,13,0,00110.jpg 2,3,3,1,0,1,-100,1668,2,1.5,4,1,0.590819043516174,1
Dyads,41,2,1,14,0,11111.jpg 2,4,4,1,1,1,0,16211,2,1.5,4,1,0.8056252868922086,1
Dyads,41,2,1,15,0,10101.jpg 2,2,2,0,1,1,100,2929,2,1.5,4,1,0.7032895810198758,1
Dyads,41,2,1,16,0,10100.jpg 2,2,2,0,1,1,200,3557,2,1.5,4,1,0.7438131905025681,1
Dyads,41,2,1,17,0,01100.jpg 2,2,1,0,1,0,100,12840,2,1.5,4,1,0.702449628758201,0
Dyads,41,2,1,18,0,11011.jpg 2,4,3,1,1,0,0,2015,2,1.5,4,1,0.48425861221386296,0
Dyads,41,2,1,19,0,10011.jpg 2,3,4,1,0,0,-100,4829,2,1.5,4,1,0.7732577417778749,0
Dyads,41,2,1,20,0,11000.jpg 2,2,1,0,1,0,-200,4693,2,1.5,4,1,0.5996340550635156,0
Dyads,41,2,1,21,0,00011.jpg 2,3,3,1,0,1,-100,3874,2,1.5,4,1,0.7646383996539229,1
Dyads,41,2,1,22,0,00011.jpg 2,3,3,1,0,1,0,1794,2,1.5,4,1,0.7646383996539229,1
Dyads,41,2,1,23,0,01111.jpg 2,4,4,1,1,1,100,4035,2,1.5,4,1,0.6384441811388984,1
Dyads,41,2,1,24,0,01000.jpg 2,1,1,0,0,1,200,4675,2,1.5,4,1,0.6795781355582656,1
Dyads,41,2,1,25,0,11010.jpg 2,4,4,1,1,1,300,5823,2,1.5,4,1,0.549621951437815,1
Dyads,41,2,1,26,0,01100.jpg 2,2,2,0,1,1,400,3071,2,1.5,4,1,0.702449628758201,1
Dyads,41,2,1,27,0,00010.jpg 2,3,3,1,0,1,500,1540,2,1.5,4,1,0.6679302600992285,1
Dyads,41,2,1,28,0,10000.jpg 2,1,2,0,0,0,400,2872,2,1.5,4,1,0.5270425255807498,0
Dyads,41,2,1,29,0,10001.jpg 2,1,1,0,0,1,500,5894,2,1.5,4,1,0.7453522777518584,1
Dyads,41,2,1,30,0,10101.jpg 2,2,2,0,1,1,600,1931,2,1.5,4,1,0.7032895810198758,1
Dyads,41,2,1,31,0,01010.jpg 2,3,3,1,0,1,700,1862,2,1.5,4,1,0.6738388654925336,1
Dyads,41,2,1,32,0,11000.jpg 2,2,1,0,1,0,600,2125,2,1.5,4,1,0.5996340550635156,0
Dyads,41,3,1,1,0,01001.jpg 3,1,1,0,0,1,100,9700,2,1.5,4,1,0.7974537040597263,1
Dyads,41,3,1,2,0,00011.jpg 3,3,4,1,0,0,0,8754,2,1.5,4,1,0.5812503643783203,0
Dyads,41,3,1,3,0,11010.jpg 3,2,2,0,1,1,100,5052,2,1.5,4,1,0.6077045193551277,1
Dyads,41,3,1,4,0,10011.jpg 3,3,3,1,0,1,200,3146,2,1.5,4,1,0.5448644068630025,1
Dyads,41,3,1,5,0,01111.jpg 3,4,3,1,1,0,100,12566,2,1.5,4,1,0.5560481724844077,0
Dyads,41,3,1,6,0,10111.jpg 3,4,4,1,1,1,200,7631,2,1.5,4,1,0.6372843815464632,1
Dyads,41,3,1,7,0,10111.jpg 3,4,4,1,1,1,300,1669,2,1.5,4,1,0.6372843815464632,1
Dyads,41,3,1,8,0,01101.jpg 3,2,2,0,1,1,400,15634,2,1.5,4,1,0.6168003345275581,1
Dyads,41,3,1,9,0,11110.jpg 3,2,3,0,1,0,300,3425,2,1.5,4,1,0.6655496318535651,0
Dyads,41,3,1,10,0,00001.jpg 3,1,1,0,0,1,400,2986,2,1.5,4,1,0.862256312924729,1
Dyads,41,3,1,11,0,11001.jpg 3,2,2,0,1,1,500,8012,2,1.5,4,1,0.5319152186080276,1
Dyads,41,3,1,12,0,11101.jpg 3,2,2,0,1,1,600,1660,2,1.5,4,1,0.6437129360872277,1
Dyads,41,3,1,13,0,01001.jpg 3,1,1,0,0,1,700,1618,2,1.5,4,1,0.7974537040597263,1
Dyads,41,3,1,14,0,10101.jpg 3,2,2,0,1,1,800,1947,2,1.5,4,1,0.6621922414002257,1
Dyads,41,3,1,15,0,10111.jpg 3,4,4,1,1,1,900,2990,2,1.5,4,1,0.6372843815464632,1
Dyads,41,3,1,16,0,10110.jpg 3,2,4,0,1,0,800,1646,2,1.5,4,1,0.5896551627857364,0
Dyads,41,3,1,17,0,11001.jpg 3,2,2,0,1,1,900,3917,2,1.5,4,1,0.5319152186080276,1
Dyads,41,3,1,18,0,10011.jpg 3,3,3,1,0,1,1000,3305,2,1.5,4,1,0.5448644068630025,1
Dyads,41,3,1,19,0,11011.jpg 3,4,4,1,1,1,1100,4142,2,1.5,4,1,0.5699162844027755,1
Dyads,41,3,1,20,0,00000.jpg 3,1,1,0,0,1,1200,4537,2,1.5,4,1,0.7710593647786271,1
Dyads,41,3,1,21,0,10001.jpg 3,1,1,0,0,1,1300,5660,2,1.5,4,1,0.7606594789689375,1
Dyads,41,3,1,22,0,00101.jpg 3,1,1,0,0,1,1400,2787,2,1.5,4,1,0.5369956920228339,1
Dyads,41,3,1,23,0,00111.jpg 3,3,3,1,0,1,1500,4532,2,1.5,4,1,0.5432122163081204,1
Dyads,41,3,1,24,0,11111.jpg 3,4,4,1,1,1,1600,4440,2,1.5,4,1,0.765786405294188,1
Dyads,41,3,1,25,0,00101.jpg 3,1,1,0,0,1,1700,4198,2,1.5,4,1,0.5369956920228339,1
Dyads,41,3,1,26,0,11110.jpg 3,2,2,0,1,1,1800,8232,2,1.5,4,1,0.6655496318535651,1
Dyads,41,3,1,27,0,00111.jpg 3,3,3,1,0,1,1900,3039,2,1.5,4,1,0.5432122163081204,1
Dyads,41,3,1,28,0,00100.jpg 3,1,1,0,0,1,2000,3526,2,1.5,4,1,0.6963665318888287,1
Dyads,41,3,1,29,0,10010.jpg 3,1,3,0,0,0,1900,3291,2,1.5,4,1,0.4069135860112239,0
Dyads,41,3,1,30,0,01001.jpg 3,1,1,0,0,1,2000,4111,2,1.5,4,1,0.7974537040597263,1
Dyads,41,3,1,31,0,01010.jpg 3,1,1,0,0,1,2100,2892,2,1.5,4,1,0.6272348883685515,1
Dyads,41,3,1,32,0,01000.jpg 3,1,1,0,0,1,2200,1969,2,1.5,4,1,0.7700810783214238,1
Dyads,42,1,1,1,0,11010.jpg 1,2,3,0,1,0,-100,16682,3.5,1.5,1,1.5,0.5171726414404607,0
Dyads,42,1,1,2,0,11000.jpg 1,1,4,0,0,0,-200,33414,3.5,1.5,1,1.5,0.6317902184154035,0
Dyads,42,1,1,3,0,00011.jpg 1,2,2,0,1,1,-100,14942,3.5,1.5,1,1.5,0.673057233710748,1
Dyads,42,1,1,4,0,00111.jpg 1,2,4,0,1,0,-200,26401,3.5,1.5,1,1.5,0.5216134295731735,0
Dyads,42,1,1,5,0,10110.jpg 1,4,4,1,1,1,-100,30995,3.5,1.5,1,1.5,0.5624366296750116,1
Dyads,42,1,1,6,0,00111.jpg 1,2,2,0,1,1,0,15035,3.5,1.5,1,1.5,0.5216134295731735,1
Dyads,42,1,1,7,0,10001.jpg 1,1,2,0,0,0,-100,16002,3.5,1.5,1,1.5,0.48271323259042176,0
Dyads,42,1,1,8,0,01010.jpg 1,2,1,0,1,0,-200,55434,3.5,1.5,1,1.5,0.6980773928898383,0
Dyads,42,1,1,9,0,10100.jpg 1,3,4,1,0,0,-300,31802,3.5,1.5,1,1.5,0.6162761211999254,0
Dyads,42,1,1,10,0,01000.jpg 1,1,2,0,0,0,-400,30594,3.5,1.5,1,1.5,0.8292823697488716,0
Dyads,42,1,1,11,0,01101.jpg 1,1,2,0,0,0,-500,14450,3.5,1.5,1,1.5,0.5518040449073783,0
Dyads,42,1,1,12,0,11010.jpg 1,2,2,0,1,1,-400,9232,3.5,1.5,1,1.5,0.5171726414404607,1
Dyads,42,1,1,13,0,00010.jpg 1,2,3,0,1,0,-500,12111,3.5,1.5,1,1.5,0.6522482466145788,0
Dyads,42,1,1,14,0,01001.jpg 1,1,1,0,0,1,-400,21652,3.5,1.5,1,1.5,0.7394782464778198,1
Dyads,42,1,1,15,0,01110.jpg 1,2,3,0,1,0,-500,6329,3.5,1.5,1,1.5,0.722505132628675,0
Dyads,42,1,1,16,0,01100.jpg 1,1,3,0,0,0,-600,21206,3.5,1.5,1,1.5,0.4574509669039529,0
Dyads,42,1,1,17,0,00011.jpg 1,2,2,0,1,1,-500,4853,3.5,1.5,1,1.5,0.673057233710748,1
Dyads,42,1,1,18,0,00110.jpg 1,2,1,0,1,0,-600,38285,3.5,1.5,1,1.5,0.4952010478058462,0
Dyads,42,1,1,19,0,11110.jpg 1,4,3,1,1,0,-700,6545,3.5,1.5,1,1.5,0.7247332296795479,0
Dyads,42,1,1,20,0,01101.jpg 1,1,2,0,0,0,-800,11043,3.5,1.5,1,1.5,0.5518040449073783,0
Dyads,42,1,1,21,0,00100.jpg 1,1,2,0,0,0,-900,56008,3.5,1.5,1,1.5,0.6324352702599618,0
Dyads,42,1,1,22,0,00110.jpg 1,2,2,0,1,1,-800,20537,3.5,1.5,1,1.5,0.4952010478058462,1
Dyads,42,1,1,23,0,10010.jpg 1,2,2,0,1,1,-700,6226,3.5,1.5,1,1.5,0.5547143905665352,1
Dyads,42,1,1,24,0,11101.jpg 1,3,1,1,0,0,-800,51546,3.5,1.5,1,1.5,0.5949551961877018,0
Dyads,42,1,1,25,0,01011.jpg 1,2,1,0,1,0,-900,5852,3.5,1.5,1,1.5,0.7267848818983456,0
Dyads,42,1,1,26,0,11100.jpg 1,3,2,1,0,0,-1000,15588,3.5,1.5,1,1.5,0.5406598746943394,0
Dyads,42,1,1,27,0,01010.jpg 1,2,1,0,1,0,-1100,79243,3.5,1.5,1,1.5,0.6980773928898383,0
Dyads,42,1,1,28,0,01000.jpg 1,1,2,0,0,0,-1200,16451,3.5,1.5,1,1.5,0.8292823697488716,0
Dyads,42,1,1,29,0,11001.jpg 1,1,3,0,0,0,-1300,14042,3.5,1.5,1,1.5,0.5529064189258296,0
Dyads,42,1,1,30,0,10010.jpg 1,2,2,0,1,1,-1200,14552,3.5,1.5,1,1.5,0.5547143905665352,1
Dyads,42,1,1,31,0,11001.jpg 1,1,1,0,0,1,-1100,18569,3.5,1.5,1,1.5,0.5529064189258296,1
Dyads,42,1,1,32,0,10110.jpg 1,4,4,1,1,1,-1000,18963,3.5,1.5,1,1.5,0.5624366296750116,1
Dyads,42,2,1,1,0,00101.jpg 2,1,1,0,0,1,100,26041,3.5,1.5,1,1.5,0.5254866172541278,1
Dyads,42,2,1,2,0,01101.jpg 2,2,1,0,1,0,0,2602,3.5,1.5,1,1.5,0.5168909170641475,0
Dyads,42,2,1,3,0,11100.jpg 2,2,3,0,1,0,-100,17802,3.5,1.5,1,1.5,0.4466980804237245,0
Dyads,42,2,1,4,0,00001.jpg 2,1,1,0,0,1,0,12458,3.5,1.5,1,1.5,0.6397319389511478,1
Dyads,42,2,1,5,0,10001.jpg 2,1,1,0,0,1,100,14889,3.5,1.5,1,1.5,0.6218541489627673,1
Dyads,42,2,1,6,0,01000.jpg 2,1,1,0,0,1,200,3807,3.5,1.5,1,1.5,0.5437090255444096,1
Dyads,42,2,1,7,0,01000.jpg 2,1,1,0,0,1,300,1399,3.5,1.5,1,1.5,0.5437090255444096,1
Dyads,42,2,1,8,0,01111.jpg 2,4,3,1,1,0,200,16456,3.5,1.5,1,1.5,0.49801690155331974,0
Dyads,42,2,1,9,0,01010.jpg 2,3,2,1,0,0,100,31797,3.5,1.5,1,1.5,0.5371934757293312,0
Dyads,42,2,1,10,0,11111.jpg 2,4,3,1,1,0,0,77454,3.5,1.5,1,1.5,0.6995762205335957,0
Dyads,42,2,1,11,0,01010.jpg 2,3,3,1,0,1,100,12553,3.5,1.5,1,1.5,0.5371934757293312,1
Dyads,42,2,1,12,0,11000.jpg 2,2,1,0,1,0,0,3469,3.5,1.5,1,1.5,0.4569544031784927,0
Dyads,42,2,1,13,0,11011.jpg 2,4,2,1,1,0,-100,23794,3.5,1.5,1,1.5,0.3453512961507789,0
Dyads,42,2,1,14,0,11101.jpg 2,2,2,0,1,1,0,32169,3.5,1.5,1,1.5,0.6100197210707089,1
Dyads,42,2,1,15,0,10101.jpg 2,2,2,0,1,1,100,2748,3.5,1.5,1,1.5,0.5711297128398432,1
Dyads,42,2,1,16,0,00010.jpg 2,3,3,1,0,1,200,10215,3.5,1.5,1,1.5,0.5305340861403502,1
Dyads,42,2,1,17,0,00001.jpg 2,1,1,0,0,1,300,3255,3.5,1.5,1,1.5,0.6397319389511478,1
Dyads,42,2,1,18,0,11100.jpg 2,2,3,0,1,0,200,20958,3.5,1.5,1,1.5,0.4466980804237245,0
Dyads,42,2,1,19,0,10111.jpg 2,4,4,1,1,1,300,17280,3.5,1.5,1,1.5,0.8003477494388934,1
Dyads,42,2,1,20,0,10010.jpg 2,3,2,1,0,0,200,8677,3.5,1.5,1,1.5,0.3895261913276879,0
Dyads,42,2,1,21,0,01000.jpg 2,1,1,0,0,1,300,21755,3.5,1.5,1,1.5,0.5437090255444096,1
Dyads,42,2,1,22,0,11111.jpg 2,4,4,1,1,1,400,14725,3.5,1.5,1,1.5,0.6995762205335957,1
Dyads,42,2,1,23,0,01110.jpg 2,4,2,1,1,0,300,17760,3.5,1.5,1,1.5,0.4771247756947943,0
Dyads,42,2,1,24,0,11111.jpg 2,4,4,1,1,1,400,20199,3.5,1.5,1,1.5,0.6995762205335957,1
Dyads,42,2,1,25,0,10111.jpg 2,4,4,1,1,1,500,1801,3.5,1.5,1,1.5,0.8003477494388934,1
Dyads,42,2,1,26,0,00100.jpg 2,1,2,0,0,0,400,18439,3.5,1.5,1,1.5,0.5146528072591607,0
Dyads,42,2,1,27,0,11000.jpg 2,2,1,0,1,0,300,6526,3.5,1.5,1,1.5,0.4569544031784927,0
Dyads,42,2,1,28,0,10101.jpg 2,2,1,0,1,0,200,27002,3.5,1.5,1,1.5,0.5711297128398432,0
Dyads,42,2,1,29,0,11100.jpg 2,2,2,0,1,1,300,5483,3.5,1.5,1,1.5,0.4466980804237245,1
Dyads,42,2,1,30,0,10100.jpg 2,2,2,0,1,1,400,1272,3.5,1.5,1,1.5,0.6199492364356591,1
Dyads,42,2,1,31,0,00011.jpg 2,3,2,1,0,0,300,16598,3.5,1.5,1,1.5,0.6460519434760136,0
Dyads,42,2,1,32,0,10011.jpg 2,3,3,1,0,1,400,7975,3.5,1.5,1,1.5,0.6570663987781553,1
Dyads,42,3,1,1,0,00000.jpg 3,1,1,0,0,1,100,5483,3.5,1.5,1,1.5,0.6702930205115369,1
Dyads,42,3,1,2,0,11011.jpg 3,4,4,1,1,1,200,9682,3.5,1.5,1,1.5,0.4444101641813169,1
Dyads,42,3,1,3,0,00001.jpg 3,1,1,0,0,1,300,2134,3.5,1.5,1,1.5,0.7907357385027606,1
Dyads,42,3,1,4,0,01101.jpg 3,2,2,0,1,1,400,2082,3.5,1.5,1,1.5,0.4927997979294015,1
Dyads,42,3,1,5,0,00101.jpg 3,1,2,0,0,0,300,1695,3.5,1.5,1,1.5,0.41179780895009327,0
Dyads,42,3,1,6,0,10101.jpg 3,2,2,0,1,1,400,26091,3.5,1.5,1,1.5,0.5419727257706256,1
Dyads,42,3,1,7,0,11101.jpg 3,2,1,0,1,0,300,12472,3.5,1.5,1,1.5,0.5216674513041484,0
Dyads,42,3,1,8,0,01010.jpg 3,1,3,0,0,0,200,5822,3.5,1.5,1,1.5,0.5038950733229315,0
Dyads,42,3,1,9,0,10100.jpg 3,1,2,0,0,0,100,23358,3.5,1.5,1,1.5,0.26232602115734005,0
Dyads,42,3,1,10,0,10000.jpg 3,1,1,0,0,1,200,17047,3.5,1.5,1,1.5,0.5706357238859731,1
Dyads,42,3,1,11,0,01001.jpg 3,1,1,0,0,1,300,5167,3.5,1.5,1,1.5,0.7038425221606828,1
Dyads,42,3,1,12,0,11111.jpg 3,4,4,1,1,1,400,7010,3.5,1.5,1,1.5,0.663711422826585,1
Dyads,42,3,1,13,0,00000.jpg 3,1,1,0,0,1,500,3409,3.5,1.5,1,1.5,0.6702930205115369,1
Dyads,42,3,1,14,0,11111.jpg 3,4,4,1,1,1,600,2545,3.5,1.5,1,1.5,0.663711422826585,1
Dyads,42,3,1,15,0,11000.jpg 3,1,1,0,0,1,700,4627,3.5,1.5,1,1.5,0.5653628682166647,1
Dyads,42,3,1,16,0,00111.jpg 3,3,3,1,0,1,800,6691,3.5,1.5,1,1.5,0.41787305796435587,1
Dyads,42,3,1,17,0,01010.jpg 3,1,1,0,0,1,900,6449,3.5,1.5,1,1.5,0.5038950733229315,1
Dyads,42,3,1,18,0,00011.jpg 3,3,1,1,0,0,800,4112,3.5,1.5,1,1.5,0.45589403334361644,0
Dyads,42,3,1,19,0,00000.jpg 3,1,1,0,0,1,900,5117,3.5,1.5,1,1.5,0.6702930205115369,1
Dyads,42,3,1,20,0,11111.jpg 3,4,4,1,1,1,1000,1625,3.5,1.5,1,1.5,0.663711422826585,1
Dyads,42,3,1,21,0,10101.jpg 3,2,2,0,1,1,1100,12688,3.5,1.5,1,1.5,0.5419727257706256,1
Dyads,42,3,1,22,0,00001.jpg 3,1,1,0,0,1,1200,2229,3.5,1.5,1,1.5,0.7907357385027606,1
Dyads,42,3,1,23,0,01111.jpg 3,4,3,1,1,0,1100,11740,3.5,1.5,1,1.5,0.43053882057246007,0
Dyads,42,3,1,24,0,11001.jpg 3,2,1,0,1,0,1000,22223,3.5,1.5,1,1.5,0.40686096502038643,0
Dyads,42,3,1,25,0,10001.jpg 3,1,2,0,0,0,900,2078,3.5,1.5,1,1.5,0.65734986630762,0
Dyads,42,3,1,26,0,01000.jpg 3,1,1,0,0,1,1000,6156,3.5,1.5,1,1.5,0.6690689520080599,1
Dyads,42,3,1,27,0,00101.jpg 3,1,1,0,0,1,1100,8510,3.5,1.5,1,1.5,0.41179780895009327,1
Dyads,42,3,1,28,0,01111.jpg 3,4,4,1,1,1,1200,9659,3.5,1.5,1,1.5,0.43053882057246007,1
Dyads,42,3,1,29,0,11101.jpg 3,2,1,0,1,0,1100,29784,3.5,1.5,1,1.5,0.5216674513041484,0
Dyads,42,3,1,30,0,01011.jpg 3,3,1,1,0,0,1000,9290,3.5,1.5,1,1.5,0.4188860882920617,0
Dyads,42,3,1,31,0,00111.jpg 3,3,4,1,0,0,900,7117,3.5,1.5,1,1.5,0.41787305796435587,0
Dyads,42,3,1,32,0,00011.jpg 3,3,3,1,0,1,1000,6050,3.5,1.5,1,1.5,0.45589403334361644,1
Dyads,44,1,1,1,0,11001.jpg 1,1,4,0,0,0,-100,13644,3,4,2,2,0.6740973685221084,0
Dyads,44,1,1,2,0,00001.jpg 1,1,1,0,0,1,0,21466,3,4,2,2,0.7755746244346441,1
Dyads,44,1,1,3,0,11101.jpg 1,3,3,1,0,1,100,19079,3,4,2,2,0.7107117798207252,1
Dyads,44,1,1,4,0,00110.jpg 1,2,2,0,1,1,200,51301,3,4,2,2,0.6213209277727363,1
Dyads,44,1,1,5,0,11000.jpg 1,1,4,0,0,0,100,14386,3,4,2,2,0.7415920275158026,0
Dyads,44,1,1,6,0,11110.jpg 1,4,4,1,1,1,200,12475,3,4,2,2,0.8149375266593422,1
Dyads,44,1,1,7,0,00001.jpg 1,1,1,0,0,1,300,8262,3,4,2,2,0.7755746244346441,1
Dyads,44,1,1,8,0,01111.jpg 1,2,2,0,1,1,400,9397,3,4,2,2,0.7188628686479708,1
Dyads,44,1,1,9,0,00101.jpg 1,1,1,0,0,1,500,6676,3,4,2,2,0.6590302758631991,1
Dyads,44,1,1,10,0,10011.jpg 1,2,4,0,1,0,400,7035,3,4,2,2,0.6883645816628622,0
Dyads,44,1,1,11,0,11011.jpg 1,2,4,0,1,0,300,13290,3,4,2,2,0.5488355515288944,0
Dyads,44,1,1,12,0,10110.jpg 1,4,4,1,1,1,400,64054,3,4,2,2,0.6825275814916846,1
Dyads,44,1,1,13,0,11101.jpg 1,3,3,1,0,1,500,13355,3,4,2,2,0.7107117798207252,1
Dyads,44,1,1,14,0,10010.jpg 1,2,4,0,1,0,400,10566,3,4,2,2,0.6757027094353647,0
Dyads,44,1,1,15,0,11001.jpg 1,1,1,0,0,1,500,21376,3,4,2,2,0.6740973685221084,1
Dyads,44,1,1,16,0,01111.jpg 1,2,2,0,1,1,600,11866,3,4,2,2,0.7188628686479708,1
Dyads,44,1,1,17,0,10000.jpg 1,1,3,0,0,0,500,6311,3,4,2,2,0.5463921803468544,0
Dyads,44,1,1,18,0,00001.jpg 1,1,1,0,0,1,600,6843,3,4,2,2,0.7755746244346441,1
Dyads,44,1,1,19,0,01011.jpg 1,2,2,0,1,1,700,7995,3,4,2,2,0.8164870986620275,1
Dyads,44,1,1,20,0,11100.jpg 1,3,3,1,0,1,800,6170,3,4,2,2,0.6631479940590663,1
Dyads,44,1,1,21,0,00110.jpg 1,2,4,0,1,0,700,25173,3,4,2,2,0.6213209277727363,0
Dyads,44,1,1,22,0,11011.jpg 1,2,2,0,1,1,800,9981,3,4,2,2,0.5488355515288944,1
Dyads,44,1,1,23,0,01011.jpg 1,2,2,0,1,1,900,2918,3,4,2,2,0.8164870986620275,1
Dyads,44,1,1,24,0,00100.jpg 1,1,3,0,0,0,800,5827,3,4,2,2,0.742123236187655,0
Dyads,44,1,1,25,0,01100.jpg 1,1,1,0,0,1,900,3897,3,4,2,2,0.5851002572717333,1
Dyads,44,1,1,26,0,00111.jpg 1,2,2,0,1,1,1000,17455,3,4,2,2,0.6458536522356265,1
Dyads,44,1,1,27,0,10110.jpg 1,4,4,1,1,1,1100,3453,3,4,2,2,0.6825275814916846,1
Dyads,44,1,1,28,0,01111.jpg 1,2,2,0,1,1,1200,3826,3,4,2,2,0.7188628686479708,1
Dyads,44,1,1,29,0,00011.jpg 1,2,2,0,1,1,1300,2544,3,4,2,2,0.7749368141471331,1
Dyads,44,1,1,30,0,10100.jpg 1,3,3,1,0,1,1400,2475,3,4,2,2,0.7287178013622894,1
Dyads,44,1,1,31,0,00110.jpg 1,2,4,0,1,0,1300,2770,3,4,2,2,0.6213209277727363,0
Dyads,44,1,1,32,0,10010.jpg 1,2,4,0,1,0,1200,7516,3,4,2,2,0.6757027094353647,0
Dyads,44,2,1,1,0,01001.jpg 2,1,1,0,0,1,100,8004,3,4,2,2,0.6475501307995175,1
Dyads,44,2,1,2,0,01011.jpg 2,3,2,1,0,0,0,2388,3,4,2,2,0.5798055747615658,0
Dyads,44,2,1,3,0,01001.jpg 2,1,1,0,0,1,100,6837,3,4,2,2,0.6475501307995175,1
Dyads,44,2,1,4,0,10011.jpg 2,3,4,1,0,0,0,49227,3,4,2,2,0.6945613066950436,0
Dyads,44,2,1,5,0,11010.jpg 2,4,3,1,1,0,-100,6898,3,4,2,2,0.44865073191536087,0
Dyads,44,2,1,6,0,10011.jpg 2,3,3,1,0,1,0,7118,3,4,2,2,0.6945613066950436,1
Dyads,44,2,1,7,0,00110.jpg 2,3,2,1,0,0,-100,3241,3,4,2,2,0.49052242596528833,0
Dyads,44,2,1,8,0,10100.jpg 2,2,3,0,1,0,-200,52712,3,4,2,2,0.6593987250897542,0
Dyads,44,2,1,9,0,01100.jpg 2,2,2,0,1,1,-100,4036,3,4,2,2,0.6115240554259719,1
Dyads,44,2,1,10,0,01111.jpg 2,4,1,1,1,0,-200,20530,3,4,2,2,0.5407471053242998,0
Dyads,44,2,1,11,0,11100.jpg 2,2,4,0,1,0,-300,10596,3,4,2,2,0.4893171839513242,0
Dyads,44,2,1,12,0,10000.jpg 2,1,2,0,0,0,-400,51755,3,4,2,2,0.4262931330243398,0
Dyads,44,2,1,13,0,01010.jpg 2,3,1,1,0,0,-500,21525,3,4,2,2,0.5794052455260381,0
Dyads,44,2,1,14,0,11111.jpg 2,4,2,1,1,0,-600,51400,3,4,2,2,0.7343027284522812,0
Dyads,44,2,1,15,0,00000.jpg 2,1,1,0,0,1,-500,32142,3,4,2,2,0.7350496752398377,1
Dyads,44,2,1,16,0,01010.jpg 2,3,3,1,0,1,-400,47546,3,4,2,2,0.5794052455260381,1
Dyads,44,2,1,17,0,11011.jpg 2,4,4,1,1,1,-300,54940,3,4,2,2,0.38502970158841493,1
Dyads,44,2,1,18,0,00111.jpg 2,3,3,1,0,1,-200,25285,3,4,2,2,0.36868551869660837,1
Dyads,44,2,1,19,0,01001.jpg 2,1,1,0,0,1,-100,10618,3,4,2,2,0.6475501307995175,1
Dyads,44,2,1,20,0,00101.jpg 2,1,1,0,0,1,0,4764,3,4,2,2,0.567907292427296,1
Dyads,44,2,1,21,0,01100.jpg 2,2,1,0,1,0,-100,8845,3,4,2,2,0.6115240554259719,0
Dyads,44,2,1,22,0,00010.jpg 2,3,3,1,0,1,0,42826,3,4,2,2,0.5728703022969843,1
